subject,runNumber,trialNumber,probRange,outputRange,noiseType,trialStartTime,presentedProb_1,presentedProb_2,certaintyEquivalent,responseTime,invalidResponses,answer,riskyValue,lotteryExpectedValue,probabilitySequence_1,probabilitySequence_2,trialTimings,lotteryStartTimings,lotteryEndTimings,scaleStartTimings,scaleEndTimings,responseStartTimings,responseEndTimings
03,1,1,00to100,00to100,lowNoise,0.156714753677534,35,100,14.0,11.0000009999999,,yes,43,15.05,35,100,0.0,0.5,11.5,0.5,11.5,0.5,11.5
03,1,2,00to100,00to100,lowNoise,11.6749217536774,5,100,3.0,11.0000006999999,,yes,43,2.15,5,100,11.5,12.0,23.0,12.0,23.0,12.0,23.0
03,1,3,00to100,00to100,lowNoise,23.0727236143798,89,100,35.0,11.0000017999998,,yes,43,38.27,89,100,23.0,23.5,34.5,23.5,34.5,23.5,34.5
03,1,4,00to100,00to100,lowNoise,34.5638111536775,59,100,24.0,11.0000014999998,,yes,43,25.37,59,100,34.5,35.0,46.0,35.0,46.0,35.0,46.0
03,1,5,00to100,00to100,lowNoise,46.0569602143798,69,100,29.0,11.0000012,,yes,43,29.67,69,100,46.0,46.5,57.5,46.5,57.5,46.5,57.5
03,1,6,00to100,00to100,lowNoise,57.5645850143799,57,100,24.0,11.0,,yes,43,24.51,57,100,57.5,58.0,69.0,58.0,69.0,58.0,69.0
03,1,7,00to100,00to100,lowNoise,69.0549580143797,93,100,41.0,11.0000006,,yes,43,39.99,93,100,69.0,69.5,80.5,69.5,80.5,69.5,80.5
03,1,8,00to100,00to100,lowNoise,80.5507911536774,77,100,30.0,11.0000012,,yes,43,33.11,77,100,80.5,81.0,92.0,81.0,92.0,81.0,92.0
03,1,9,00to100,00to100,lowNoise,92.0455889536775,65,100,29.0,11.0000006999999,,yes,43,27.95,65,100,92.0,92.5,103.5,92.5,103.5,92.5,103.5
03,1,10,00to100,00to100,lowNoise,103.55271531438,49,100,22.0,11.0000004999999,,yes,43,21.07,49,100,103.5,104.0,115.0,104.0,115.0,104.0,115.0
03,1,11,00to100,00to100,lowNoise,115.05390301438,1,100,2.0,11.0000006,,yes,43,0.43,1,100,115.0,115.5,126.5,115.5,126.5,115.5,126.5
03,1,12,00to100,00to100,lowNoise,126.544353853677,85,100,36.0,11.0000011,,yes,43,36.55,85,100,126.5,127.0,138.0,127.0,138.0,127.0,138.0
03,1,13,00to100,00to100,lowNoise,138.04272791438,27,100,12.0,11.0000000999999,,yes,43,11.61,27,100,138.0,138.5,149.5,138.5,149.5,138.5,149.5
03,1,14,00to100,00to100,lowNoise,149.55788491438,73,100,30.0,11.0000012999999,,yes,43,31.39,73,100,149.5,150.0,161.0,150.0,161.0,150.0,161.0
03,1,15,00to100,00to100,lowNoise,161.04710411438,55,100,24.0,11.0000014999998,,yes,43,23.65,55,100,161.0,161.5,172.5,161.5,172.5,161.5,172.5
03,1,16,00to100,00to100,lowNoise,172.547546917893,91,100,41.0,11.0000003999999,,yes,43,39.13,91,100,172.5,173.0,184.0,173.0,184.0,173.0,184.0
03,1,17,00to100,00to100,lowNoise,184.046862353677,3,100,2.0,11.0,,yes,43,1.29,3,100,184.0,184.5,195.5,184.5,195.5,184.5,195.5
03,1,18,00to100,00to100,lowNoise,195.549205353678,19,100,9.0,11.0000008,,yes,43,8.17,19,100,195.5,196.0,207.0,196.0,207.0,196.0,207.0
03,1,19,00to100,00to100,lowNoise,207.04331211438,51,100,22.0,11.0000014999998,,yes,43,21.93,51,100,207.0,207.5,218.5,207.5,218.5,207.5,218.5
03,1,20,00to100,00to100,lowNoise,218.545840553677,97,100,43.0,11.0000006,,yes,43,41.71,97,100,218.5,219.0,230.0,219.0,230.0,219.0,230.0
03,1,21,00to100,00to100,lowNoise,230.043711592975,29,100,13.0,11.0000014999998,,yes,43,12.47,29,100,230.0,230.5,241.5,230.5,241.5,230.5,241.5
03,1,22,00to100,00to100,lowNoise,241.552921492975,33,100,13.0,11.0000003999999,,yes,43,14.19,33,100,241.5,242.0,253.0,242.0,253.0,242.0,253.0
03,1,23,00to100,00to100,lowNoise,253.04760101438,45,100,21.0,11.0000015999999,,yes,43,19.35,45,100,253.0,253.5,264.5,253.5,264.5,253.5,264.5
03,1,24,00to100,00to100,lowNoise,264.547782753677,99,100,43.0,11.0000015999999,443.0,yes,43,42.57,99,100,264.5,265.0,276.0,265.0,276.0,265.0,276.0
03,1,25,00to100,00to100,lowNoise,276.05859997157,15,100,5.0,11.0000012999999,,yes,43,6.45,15,100,276.0,276.5,287.5,276.5,287.5,276.5,287.5
03,1,26,00to100,00to100,lowNoise,287.559786053677,7,100,3.0,11.000002,,yes,43,3.01,7,100,287.5,288.0,299.0,288.0,299.0,288.0,299.0
03,1,27,00to100,00to100,lowNoise,299.04780061438,9,100,3.0,11.0000021999999,,yes,43,3.87,9,100,299.0,299.5,310.5,299.5,310.5,299.5,310.5
03,1,28,00to100,00to100,lowNoise,310.544310753678,79,100,33.0,11.0000003999999,,yes,43,33.97,79,100,310.5,311.0,322.0,311.0,322.0,311.0,322.0
03,1,29,00to100,00to100,lowNoise,322.05317671438,67,100,28.0,11.0000006,,yes,43,28.81,67,100,322.0,322.5,333.5,322.5,333.5,322.5,333.5
03,1,30,00to100,00to100,lowNoise,333.543655053677,31,100,13.0,11.0000014,,yes,43,13.33,31,100,333.5,334.0,345.0,334.0,345.0,334.0,345.0
03,1,31,00to100,00to100,lowNoise,345.054689853677,87,100,37.0,11.0000003,,yes,43,37.41,87,100,345.0,345.5,356.5,345.5,356.5,345.5,356.5
03,1,32,00to100,00to100,lowNoise,356.55954641438,25,100,12.0,11.0000017,,yes,43,10.75,25,100,356.5,357.0,368.0,357.0,368.0,357.0,368.0
03,1,33,00to100,00to100,lowNoise,368.048666075082,21,100,9.0,11.0,,yes,43,9.03,21,100,368.0,368.5,379.5,368.5,379.5,368.5,379.5
03,1,34,00to100,00to100,lowNoise,379.55637321438,17,100,8.0,11.0000014,,yes,43,7.31,17,100,379.5,380.0,391.0,380.0,391.0,380.0,391.0
03,1,35,00to100,00to100,lowNoise,391.049310953677,43,100,18.0,11.0000006,,yes,43,18.49,43,100,391.0,391.5,402.5,391.5,402.5,391.5,402.5
03,1,36,00to100,00to100,lowNoise,402.55006051438,11,100,5.0,11.000002,,yes,43,4.73,11,100,402.5,403.0,414.0,403.0,414.0,403.0,414.0
03,1,37,00to100,00to100,lowNoise,414.05023371438,61,100,25.0,11.000002,,yes,43,26.23,61,100,414.0,414.5,425.5,414.5,425.5,414.5,425.5
03,1,38,00to100,00to100,lowNoise,425.55085091438,71,100,29.0,11.000002,,yes,43,30.53,71,100,425.5,426.0,437.0,426.0,437.0,426.0,437.0
03,1,39,00to100,00to100,lowNoise,437.045089853677,23,100,9.0,11.0000003,,yes,43,9.89,23,100,437.0,437.5,448.5,437.5,448.5,437.5,448.5
03,1,40,00to100,00to100,lowNoise,448.54752001438,13,100,5.0,11.0000012999999,,yes,43,5.59,13,100,448.5,449.0,460.0,449.0,460.0,449.0,460.0
03,1,41,00to100,00to100,lowNoise,460.043452753677,95,100,42.0,11.0000014999998,,yes,43,40.85,95,100,460.0,460.5,471.5,460.5,471.5,460.5,471.5
03,1,42,00to100,00to100,lowNoise,471.557884475082,53,100,22.0,11.0000004999999,,yes,43,22.79,53,100,471.5,472.0,483.0,472.0,483.0,472.0,483.0
03,1,43,00to100,00to100,lowNoise,483.045493653677,39,100,17.0,11.0000100000002,,yes,43,16.77,39,100,483.0,483.5,494.5,483.5,494.5,483.5,494.5
03,1,44,00to100,00to100,lowNoise,494.54713421438,75,100,15.0,11.0000010000003,,yes,43,32.25,75,100,494.5,495.0,506.0,495.0,506.0,495.0,506.0
03,1,45,00to100,00to100,lowNoise,506.049711653677,41,100,17.0,11.0000008000002,,yes,43,17.63,41,100,506.0,506.5,517.5,506.5,517.5,506.5,517.5
03,1,46,00to100,00to100,lowNoise,517.55932101438,63,100,26.0,11.0000001000003,,yes,43,27.09,63,100,517.5,518.0,529.0,518.0,529.0,518.0,529.0
03,1,47,00to100,00to100,lowNoise,529.04349581438,83,100,34.0,11.0000014000002,,yes,43,35.69,83,100,529.0,529.5,540.5,529.5,540.5,529.5,540.5
03,1,48,00to100,00to100,lowNoise,540.54342401438,47,100,22.0,11.0000011000002,,yes,43,20.21,47,100,540.5,541.0,552.0,541.0,552.0,541.0,552.0
03,1,49,00to100,00to100,lowNoise,552.05429331438,81,100,33.0,11.0000017000002,,yes,43,34.83,81,100,552.0,552.5,563.5,552.5,563.5,552.5,563.5
03,1,50,00to100,00to100,lowNoise,563.55663511438,37,100,15.0,11.0000001000003,,yes,43,15.91,37,100,563.5,564.0,575.0,564.0,575.0,564.0,575.0
03,2,1,00to100,00to100,highNoise,0.0711027536772235,6210,7476,36.0,11.0,,yes,43,35.7182985553772,6210,7476,0.0,0.5,11.5,0.5,11.5,0.5,11.5
03,2,2,00to100,00to100,highNoise,11.5600632536775,4983,9772,27.0,11.0000009,,yes,43,21.9268317642243,4983,9772,11.5,12.0,23.0,12.0,23.0,12.0,23.0
03,2,3,00to100,00to100,highNoise,23.0480305536776,5329,6577,37.0,11.0000015999999,,yes,43,34.840656834423,5329,6577,23.0,23.5,34.5,23.5,34.5,23.5,34.5
03,2,4,00to100,00to100,highNoise,34.5502409143796,7754,8522,37.0,11.0000015999999,,yes,43,39.1248533208167,7754,8522,34.5,35.0,46.0,35.0,46.0,35.0,46.0
03,2,5,00to100,00to100,highNoise,46.0451187143799,2173,2817,41.0,11.0000003999999,,yes,43,33.1696840610579,2173,2817,46.0,46.5,57.5,46.5,57.5,46.5,57.5
03,2,6,00to100,00to100,highNoise,57.5541350536773,3072,9295,15.0,11.0,,yes,43,14.2115115653577,3072,9295,57.5,58.0,69.0,58.0,69.0,58.0,69.0
03,2,7,00to100,00to100,highNoise,69.0562246929749,4239,6519,31.0,11.0000006999999,,yes,43,27.9608835710999,4239,6519,69.0,69.5,80.5,69.5,80.5,69.5,80.5
03,2,8,00to100,00to100,highNoise,80.5501408143796,1265,7478,11.0,11.0000006999999,,yes,43,7.27400374431666,1265,7478,80.5,81.0,92.0,81.0,92.0,81.0,92.0
03,2,9,00to100,00to100,highNoise,92.0488253143799,2099,2403,37.0,11.0000016999998,,yes,43,37.5601331668747,2099,2403,92.0,92.5,103.5,92.5,103.5,92.5,103.5
03,2,10,00to100,00to100,highNoise,103.548840453677,7175,7243,42.0,11.0000007999997,,yes,43,42.5962998757421,7175,7243,103.5,104.0,115.0,104.0,115.0,104.0,115.0
03,2,11,00to100,00to100,highNoise,115.04537331438,124,4035,3.0,11.0000019999998,,yes,43,1.32143742255266,124,4035,115.0,115.5,126.5,115.5,126.5,115.5,126.5
03,2,12,00to100,00to100,highNoise,126.55139251438,1175,5088,12.0,11.0000020999996,,yes,43,9.93022798742138,1175,5088,126.5,127.0,138.0,127.0,138.0,127.0,138.0
03,2,13,00to100,00to100,highNoise,138.045529892975,1025,3780,13.0,11.0000006,,yes,43,11.6600529100529,1025,3780,138.0,138.5,149.5,138.5,149.5,138.5,149.5
03,2,14,00to100,00to100,highNoise,149.54416101438,7379,7608,37.0,11.0000003,,yes,43,41.7057045215563,7379,7608,149.5,150.0,161.0,150.0,161.0,150.0,161.0
03,2,15,00to100,00to100,highNoise,161.043349253677,795,4188,9.0,11.0000003999999,,yes,43,8.16260744985673,795,4188,161.0,161.5,172.5,161.5,172.5,161.5,172.5
03,2,16,00to100,00to100,highNoise,172.549304578595,2772,4872,22.0,11.0000009999999,,yes,43,24.4655172413793,2772,4872,172.5,173.0,184.0,173.0,184.0,173.0,184.0
03,2,17,00to100,00to100,highNoise,184.043039192975,488,1380,16.0,11.0000018999999,,yes,43,15.2057971014493,488,1380,184.0,184.5,195.5,184.5,195.5,184.5,195.5
03,2,18,00to100,00to100,highNoise,195.544632753677,959,1585,26.0,11.0000000999999,,yes,43,26.0170347003155,959,1585,195.5,196.0,207.0,196.0,207.0,196.0,207.0
03,2,19,00to100,00to100,highNoise,207.043705453677,5283,9970,29.0,11.0000001999997,,yes,43,22.7852557673019,5283,9970,207.0,207.5,218.5,207.5,218.5,207.5,218.5
03,2,20,00to100,00to100,highNoise,218.557327875083,1165,2596,22.0,11.0000015000001,,yes,43,19.2969953775039,1165,2596,218.5,219.0,230.0,219.0,230.0,219.0,230.0
03,2,21,00to100,00to100,highNoise,230.0275152,154,3195,8.0,11.0000013999997,,yes,43,2.07261345852895,154,3195,230.0,230.5,241.5,230.5,241.5,230.5,241.5
03,2,22,00to100,00to100,highNoise,241.54784515719,6442,9076,31.0,11.0000001999997,,yes,43,30.5207139709123,6442,9076,241.5,242.0,253.0,242.0,253.0,242.0,253.0
03,2,23,00to100,00to100,highNoise,253.045236053677,3836,4851,35.0,11.0000016999998,,yes,43,34.002886002886,3836,4851,253.0,253.5,264.5,253.5,264.5,253.5,264.5
03,2,24,00to100,00to100,highNoise,264.55950301438,836,5605,8.0,11.0000016999998,,yes,43,6.4135593220339,836,5605,264.5,265.0,276.0,265.0,276.0,265.0,276.0
03,2,25,00to100,00to100,highNoise,276.05399401438,2334,8049,13.0,11.0000018000001,,yes,43,12.4688781215058,2334,8049,276.0,276.5,287.5,276.5,287.5,276.5,287.5
03,2,26,00to100,00to100,highNoise,287.549261253677,3712,7901,20.0,11.0000018000001,,yes,43,20.2019997468675,3712,7901,287.5,288.0,299.0,288.0,299.0,288.0,299.0
03,2,27,00to100,00to100,highNoise,299.05576981438,967,1968,21.0,11.0000020999996,,yes,43,21.1285569105691,967,1968,299.0,299.5,310.5,299.5,310.5,299.5,310.5
03,2,28,00to100,00to100,highNoise,310.546473953677,98,9898,3.0,11.0000013999997,,yes,43,0.425742574257426,98,9898,310.5,311.0,322.0,311.0,322.0,311.0,322.0
03,2,29,00to100,00to100,highNoise,322.044873653677,1869,2716,20.0,11.0000012999999,,yes,43,29.590206185567,1869,2716,322.0,322.5,333.5,322.5,333.5,322.5,333.5
03,2,30,00to100,00to100,highNoise,333.558169253678,4248,4482,40.0,11.0000003999999,,yes,43,40.7550200803213,4248,4482,333.5,334.0,345.0,334.0,345.0,334.0,345.0
03,2,31,00to100,00to100,highNoise,345.05811071438,4038,5529,37.0,11.0000019999998,,yes,43,31.4042322300597,4038,5529,345.0,345.5,356.5,345.5,356.5,345.5,356.5
03,2,32,00to100,00to100,highNoise,356.553414353677,849,7755,7.0,11.0000020999996,,yes,43,4.70754352030948,849,7755,356.5,357.0,368.0,357.0,368.0,357.0,368.0
03,2,33,00to100,00to100,highNoise,368.05646281438,738,2958,13.0,11.0000018000001,,yes,43,10.7281947261663,738,2958,368.0,368.5,379.5,368.5,379.5,368.5,379.5
03,2,34,00to100,00to100,highNoise,379.55295461438,962,1636,24.0,11.0000003,,yes,43,25.2848410757946,962,1636,379.5,380.0,391.0,380.0,391.0,380.0,391.0
03,2,35,00to100,00to100,highNoise,391.058226053678,2841,6608,14.0,11.0000009999999,,yes,43,18.4871368038741,2841,6608,391.0,391.5,402.5,391.5,402.5,391.5,402.5
03,2,36,00to100,00to100,highNoise,402.544506192975,3101,5639,26.0,11.0000006,,yes,43,23.6465685405214,3101,5639,402.5,403.0,414.0,403.0,414.0,403.0,414.0
03,2,37,00to100,00to100,highNoise,414.059705553677,2718,7340,15.0,11.0000000999999,,yes,43,15.9228882833787,2718,7340,414.0,414.5,425.5,414.5,425.5,414.5,425.5
03,2,38,00to100,00to100,highNoise,425.54333841438,6281,8371,30.0,11.0000001999997,,yes,43,32.2641261498029,6281,8371,425.5,426.0,437.0,426.0,437.0,426.0,437.0
03,2,39,00to100,00to100,highNoise,437.05764871438,501,7119,10.0,11.0000001999997,,yes,43,3.02612726506532,501,7119,437.0,437.5,448.5,437.5,448.5,437.5,448.5
03,2,40,00to100,00to100,highNoise,448.55607041438,419,4706,9.0,11.0000018999999,,yes,43,3.82851678708032,419,4706,448.5,449.0,460.0,449.0,460.0,449.0,460.0
03,2,41,00to100,00to100,highNoise,460.05906171438,5316,8435,27.0,11.0000003,,yes,43,27.0999407231772,5316,8435,460.0,460.5,471.5,460.5,471.5,460.5,471.5
03,2,42,00to100,00to100,highNoise,471.543506832272,1175,3016,15.0,11.0000000999999,,yes,43,16.7523209549072,1175,3016,471.5,472.0,483.0,472.0,483.0,472.0,483.0
03,2,43,00to100,00to100,highNoise,483.044633653677,867,4114,8.0,11.0,,yes,43,9.06198347107438,867,4114,483.0,483.5,494.5,483.5,494.5,483.5,494.5
03,2,44,00to100,00to100,highNoise,494.554395175082,6015,8980,28.0,11.0000009,,yes,43,28.8023385300668,6015,8980,494.5,495.0,506.0,495.0,506.0,495.0,506.0
03,2,45,00to100,00to100,highNoise,506.047315453678,779,5961,7.0,11.0000001999997,,yes,43,5.61935916792484,779,5961,506.0,506.5,517.5,506.5,517.5,506.5,517.5
03,2,46,00to100,00to100,highNoise,517.557817075082,4807,5647,32.0,11.0000006999999,,yes,43,36.6036833717018,4807,5647,517.5,518.0,529.0,518.0,529.0,518.0,529.0
03,2,47,00to100,00to100,highNoise,529.05957281438,6455,7249,38.0,11.0000001999997,,yes,43,38.290108980549,6455,7249,529.0,529.5,540.5,529.5,540.5,529.5,540.5
03,2,48,00to100,00to100,highNoise,540.559747153678,3944,4241,40.0,11.0000004999997,,yes,43,39.9886819146428,3944,4241,540.5,541.0,552.0,541.0,552.0,541.0,552.0
03,2,49,00to100,00to100,highNoise,552.045762053677,2898,7060,18.0,11.0000006,,yes,43,17.6507082152974,2898,7060,552.0,552.5,563.5,552.5,563.5,552.5,563.5
03,2,50,00to100,00to100,highNoise,563.55925891438,342,1087,14.0,11.0000020999996,,yes,43,13.5289788408464,342,1087,563.5,564.0,575.0,564.0,575.0,564.0,575.0
03,3,1,50to100,00to100,lowNoise,0.0596911143798025,69,100,29.0,11.0000024999999,,yes,43,29.67,69,100,0.0,0.5,11.5,0.5,11.5,0.5,11.5
03,3,2,50to100,00to100,lowNoise,11.5271540392978,55,100,23.0,11.0000015000001,,yes,43,23.65,55,100,11.5,12.0,23.0,12.0,23.0,12.0,23.0
03,3,3,50to100,00to100,lowNoise,23.0584722143799,81,100,36.0,11.0000021000001,,yes,43,34.83,81,100,23.0,23.5,34.5,23.5,34.5,23.5,34.5
03,3,4,50to100,00to100,lowNoise,34.5520993392975,79,100,35.0,11.0000011000002,,yes,43,33.97,79,100,34.5,35.0,46.0,35.0,46.0,35.0,46.0
03,3,5,50to100,00to100,lowNoise,46.0477186750827,75,100,33.0,11.0000039000001,,yes,43,32.25,75,100,46.0,46.5,57.5,46.5,57.5,46.5,57.5
03,3,6,50to100,00to100,lowNoise,57.5501961536775,57,100,25.0,11.0000021000001,,yes,43,24.51,57,100,57.5,58.0,69.0,58.0,69.0,58.0,69.0
03,3,7,50to100,00to100,lowNoise,69.0477703143797,73,100,33.0,11.0000006999999,,yes,43,31.39,73,100,69.0,69.5,80.5,69.5,80.5,69.5,80.5
03,3,8,50to100,00to100,lowNoise,80.5433330322726,89,100,38.0,11.0000018000001,,yes,43,38.27,89,100,80.5,81.0,92.0,81.0,92.0,81.0,92.0
03,3,9,50to100,00to100,lowNoise,92.0528046536774,59,100,24.0,11.0000006999999,,yes,43,25.37,59,100,92.0,92.5,103.5,92.5,103.5,92.5,103.5
03,3,10,50to100,00to100,lowNoise,103.554838053677,85,100,38.0,11.0000000999999,,yes,43,36.55,85,100,103.5,104.0,115.0,104.0,115.0,104.0,115.0
03,3,11,50to100,00to100,lowNoise,115.043157253678,87,100,39.0,11.0000000999999,,yes,43,37.41,87,100,115.0,115.5,126.5,115.5,126.5,115.5,126.5
03,3,12,50to100,00to100,lowNoise,126.56231741438,53,100,23.0,11.0000019999998,,yes,43,22.79,53,100,126.5,127.0,138.0,127.0,138.0,127.0,138.0
03,3,13,50to100,00to100,lowNoise,138.045972453678,83,100,38.0,11.0000000999999,,yes,43,35.69,83,100,138.0,138.5,149.5,138.5,149.5,138.5,149.5
03,3,14,50to100,00to100,lowNoise,149.55528251438,63,100,30.0,11.0000014000002,,yes,43,27.09,63,100,149.5,150.0,161.0,150.0,161.0,150.0,161.0
03,3,15,50to100,00to100,lowNoise,161.042376375083,61,100,28.0,11.0000021000001,,yes,43,26.23,61,100,161.0,161.5,172.5,161.5,172.5,161.5,172.5
03,3,16,50to100,00to100,lowNoise,172.54318501438,97,100,42.0,11.0000012,,yes,43,41.71,97,100,172.5,173.0,184.0,173.0,184.0,173.0,184.0
03,3,17,50to100,00to100,lowNoise,184.050263353678,93,100,40.0,11.0000018000001,,yes,43,39.99,93,100,184.0,184.5,195.5,184.5,195.5,184.5,195.5
03,3,18,50to100,00to100,lowNoise,195.55352461438,95,100,41.0,11.0000014000002,,yes,43,40.85,95,100,195.5,196.0,207.0,196.0,207.0,196.0,207.0
03,3,19,50to100,00to100,lowNoise,207.055492953677,77,100,34.0,11.0000017000002,,yes,43,33.11,77,100,207.0,207.5,218.5,207.5,218.5,207.5,218.5
03,3,20,50to100,00to100,lowNoise,218.561132553677,91,100,40.0,11.0000027999999,,yes,43,39.13,91,100,218.5,219.0,230.0,219.0,230.0,219.0,230.0
03,3,21,50to100,00to100,lowNoise,230.056265092975,51,100,22.0,11.0000006,,yes,43,21.93,51,100,230.0,230.5,241.5,230.5,241.5,230.5,241.5
03,3,22,50to100,00to100,lowNoise,241.547923450165,65,100,28.0,11.0000008000002,,yes,43,27.95,65,100,241.5,242.0,253.0,242.0,253.0,242.0,253.0
03,3,23,50to100,00to100,lowNoise,253.04702941438,71,100,31.0,11.0000011000002,,yes,43,30.53,71,100,253.0,253.5,264.5,253.5,264.5,253.5,264.5
03,3,24,50to100,00to100,lowNoise,264.551506453678,99,100,43.0,11.0000005000002,443.0,yes,43,42.57,99,100,264.5,265.0,276.0,265.0,276.0,265.0,276.0
03,3,25,50to100,00to100,lowNoise,276.04339257157,67,100,27.0,11.0000018999999,,yes,43,28.81,67,100,276.0,276.5,287.5,276.5,287.5,276.5,287.5
03,4,1,00to050,00to100,lowNoise,0.0721592143800081,27,100,11.0,11.0000003999999,,yes,43,11.61,27,100,0.0,0.5,11.5,0.5,11.5,0.5,11.5
03,4,2,00to050,00to100,lowNoise,11.5496457536774,7,100,4.0,11.0000004999997,,yes,43,3.01,7,100,11.5,12.0,23.0,12.0,23.0,12.0,23.0
03,4,3,00to050,00to100,lowNoise,23.0426466929753,25,100,11.0,11.0000021000001,,yes,43,10.75,25,100,23.0,23.5,34.5,23.5,34.5,23.5,34.5
03,4,4,00to050,00to100,lowNoise,34.5527446143797,29,100,13.0,11.0000006,,yes,43,12.47,29,100,34.5,35.0,46.0,35.0,46.0,35.0,46.0
03,4,5,00to050,00to100,lowNoise,46.0430767143798,49,100,22.0,11.0000007999997,,yes,43,21.07,49,100,46.0,46.5,57.5,46.5,57.5,46.5,57.5
03,4,6,00to050,00to100,lowNoise,57.5542383571901,21,100,10.0,11.0000021000001,,yes,43,9.03,21,100,57.5,58.0,69.0,58.0,69.0,58.0,69.0
03,4,7,00to050,00to100,lowNoise,69.0553308143799,3,100,2.0,11.0000018000001,,yes,43,1.29,3,100,69.0,69.5,80.5,69.5,80.5,69.5,80.5
03,4,8,00to050,00to100,lowNoise,80.5507198536775,47,100,21.0,11.0000009999999,,yes,43,20.21,47,100,80.5,81.0,92.0,81.0,92.0,81.0,92.0
03,4,9,00to050,00to100,lowNoise,92.0446400536775,31,100,13.0,11.0000010999997,,yes,43,13.33,31,100,92.0,92.5,103.5,92.5,103.5,92.5,103.5
03,4,10,00to050,00to100,lowNoise,103.552791653678,41,100,17.0,11.0000004999997,,yes,43,17.63,41,100,103.5,104.0,115.0,104.0,115.0,104.0,115.0
03,4,11,00to050,00to100,lowNoise,115.04993351438,5,100,2.0,11.0000006,,yes,43,2.15,5,100,115.0,115.5,126.5,115.5,126.5,115.5,126.5
03,4,12,00to050,00to100,lowNoise,126.54657321438,37,100,15.0,11.0000010999997,,yes,43,15.91,37,100,126.5,127.0,138.0,127.0,138.0,127.0,138.0
03,4,13,00to050,00to100,lowNoise,138.05960201438,33,100,13.0,11.0000009,,yes,43,14.19,33,100,138.0,138.5,149.5,138.5,149.5,138.5,149.5
03,4,14,00to050,00to100,lowNoise,149.55540221438,43,100,19.0,11.0000021999999,,yes,43,18.49,43,100,149.5,150.0,161.0,150.0,161.0,150.0,161.0
03,4,15,00to050,00to100,lowNoise,161.042668092975,39,100,17.0,11.0000012,,yes,43,16.77,39,100,161.0,161.5,172.5,161.5,172.5,161.5,172.5
03,4,16,00to050,00to100,lowNoise,172.550798275083,19,100,9.0,11.0000016999998,,yes,43,8.17,19,100,172.5,173.0,184.0,173.0,184.0,173.0,184.0
03,4,17,00to050,00to100,lowNoise,184.04265191438,17,100,7.0,11.0000006999999,,yes,43,7.31,17,100,184.0,184.5,195.5,184.5,195.5,184.5,195.5
03,4,18,00to050,00to100,lowNoise,195.55342511438,1,100,1.0,11.0000009999999,,yes,43,0.43,1,100,195.5,196.0,207.0,196.0,207.0,196.0,207.0
03,4,19,00to050,00to100,lowNoise,207.05028091438,11,100,8.0,11.0000015999999,,yes,43,4.73,11,100,207.0,207.5,218.5,207.5,218.5,207.5,218.5
03,4,20,00to050,00to100,lowNoise,218.551503953678,9,100,8.0,11.0000015999999,,yes,43,3.87,9,100,218.5,219.0,230.0,219.0,230.0,219.0,230.0
03,4,21,00to050,00to100,lowNoise,230.048618353677,13,100,6.0,11.0000007999997,,yes,43,5.59,13,100,230.0,230.5,241.5,230.5,241.5,230.5,241.5
03,4,22,00to050,00to100,lowNoise,241.54838271438,23,100,11.0,11.0000006,,yes,43,9.89,23,100,241.5,242.0,253.0,242.0,253.0,242.0,253.0
03,4,23,00to050,00to100,lowNoise,253.04361981438,35,100,13.0,11.0000018000001,,yes,43,15.05,35,100,253.0,253.5,264.5,253.5,264.5,253.5,264.5
03,4,24,00to050,00to100,lowNoise,264.54715121438,45,100,20.0,11.0000031,,yes,43,19.35,45,100,264.5,265.0,276.0,265.0,276.0,265.0,276.0
03,4,25,00to050,00to100,lowNoise,276.05906551438,15,100,6.0,11.0000013999997,,yes,43,6.45,15,100,276.0,276.5,287.5,276.5,287.5,276.5,287.5
03,5,1,50to100,00to100,highNoise,0.0627851143799489,1869,2716,25.0,11.0000014000002,,yes,43,29.590206185567,1869,2716,0.0,0.5,11.5,0.5,11.5,0.5,11.5
03,5,2,50to100,00to100,highNoise,11.5443578536779,2173,2817,35.0,11.0000018000001,,yes,43,33.1696840610579,2173,2817,11.5,12.0,23.0,12.0,23.0,12.0,23.0
03,5,3,50to100,00to100,highNoise,23.0514031143803,5329,6577,37.0,11.0000005000002,,yes,43,34.840656834423,5329,6577,23.0,23.5,34.5,23.5,34.5,23.5,34.5
03,5,4,50to100,00to100,highNoise,34.55790451438,3101,5639,27.0,11.0000001000003,,yes,43,23.6465685405214,3101,5639,34.5,35.0,46.0,35.0,46.0,35.0,46.0
03,5,5,50to100,00to100,highNoise,46.0474354143803,7754,8522,38.0,11.0000017000002,,yes,43,39.1248533208167,7754,8522,46.0,46.5,57.5,46.5,57.5,46.5,57.5
03,5,6,50to100,00to100,highNoise,57.5516225536776,6455,7249,39.0,11.0000002000002,,yes,43,38.290108980549,6455,7249,57.5,58.0,69.0,58.0,69.0,58.0,69.0
03,5,7,50to100,00to100,highNoise,69.0539201536776,962,1636,24.0,11.0000017000002,,yes,43,25.2848410757946,962,1636,69.0,69.5,80.5,69.5,80.5,69.5,80.5
03,5,8,50to100,00to100,highNoise,80.5463001536777,5316,8435,29.0,11.0000002000002,,yes,43,27.0999407231772,5316,8435,80.5,81.0,92.0,81.0,92.0,81.0,92.0
03,5,9,50to100,00to100,highNoise,92.0499689536778,2099,2403,38.0,11.0000010000003,,yes,43,37.5601331668747,2099,2403,92.0,92.5,103.5,92.5,103.5,92.5,103.5
03,5,10,50to100,00to100,highNoise,103.54876061438,4038,5529,36.0,11.0000022000004,,yes,43,31.4042322300597,4038,5529,103.5,104.0,115.0,104.0,115.0,104.0,115.0
03,5,11,50to100,00to100,highNoise,115.04793391438,4248,4482,40.0,11.0000011000002,,yes,43,40.7550200803213,4248,4482,115.0,115.5,126.5,115.5,126.5,115.5,126.5
03,5,12,50to100,00to100,highNoise,126.558892332273,5283,9970,25.0,11.0,,yes,43,22.7852557673019,5283,9970,126.5,127.0,138.0,127.0,138.0,127.0,138.0
03,5,13,50to100,00to100,highNoise,138.043071553678,7379,7608,38.0,11.0000010000003,,yes,43,41.7057045215563,7379,7608,138.0,138.5,149.5,138.5,149.5,138.5,149.5
03,5,14,50to100,00to100,highNoise,149.550580353678,4983,9772,23.0,11.0000009,,yes,43,21.9268317642243,4983,9772,149.5,150.0,161.0,150.0,161.0,150.0,161.0
03,5,15,50to100,00to100,highNoise,161.04928821438,6281,8371,34.0,11.0000009,,yes,43,32.2641261498029,6281,8371,161.0,161.5,172.5,161.5,172.5,161.5,172.5
03,5,16,50to100,00to100,highNoise,172.54403801438,6442,9076,33.0,11.0000021000001,,yes,43,30.5207139709123,6442,9076,172.5,173.0,184.0,173.0,184.0,173.0,184.0
03,5,17,50to100,00to100,highNoise,184.05665281438,4239,6519,34.0,11.0000006,,yes,43,27.9608835710999,4239,6519,184.0,184.5,195.5,184.5,195.5,184.5,195.5
03,5,18,50to100,00to100,highNoise,195.558211053678,4807,5647,33.0,11.0000010000003,,yes,43,36.6036833717018,4807,5647,195.5,196.0,207.0,196.0,207.0,196.0,207.0
03,5,19,50to100,00to100,highNoise,207.05809221438,959,1585,24.0,11.0000018000001,,yes,43,26.0170347003155,959,1585,207.0,207.5,218.5,207.5,218.5,207.5,218.5
03,5,20,50to100,00to100,highNoise,218.54588721438,6210,7476,34.0,11.0000004000003,,yes,43,35.7182985553772,6210,7476,218.5,219.0,230.0,219.0,230.0,219.0,230.0
03,5,21,50to100,00to100,highNoise,230.048479992975,3836,4851,37.0,11.0000020000002,,yes,43,34.002886002886,3836,4851,230.0,230.5,241.5,230.5,241.5,230.5,241.5
03,5,22,50to100,00to100,highNoise,241.55612711438,2772,4872,25.0,11.0000006,,yes,43,24.4655172413793,2772,4872,241.5,242.0,253.0,242.0,253.0,242.0,253.0
03,5,23,50to100,00to100,highNoise,253.06371481438,3944,4241,35.0,11.0000003,,yes,43,39.9886819146428,3944,4241,253.0,253.5,264.5,253.5,264.5,253.5,264.5
03,5,24,50to100,00to100,highNoise,264.55472571438,6015,8980,36.0,11.0000002000002,,yes,43,28.8023385300668,6015,8980,264.5,265.0,276.0,265.0,276.0,265.0,276.0
03,5,25,50to100,00to100,highNoise,276.04674891438,7175,7243,41.0,11.0000019000004,411.0,yes,43,42.5962998757421,7175,7243,276.0,276.5,287.5,276.5,287.5,276.5,287.5
03,6,1,00to050,00to100,highNoise,0.072032453677366,867,4114,11.0,11.0000009999999,,yes,43,9.06198347107438,867,4114,0.0,0.5,11.5,0.5,11.5,0.5,11.5
03,6,2,00to050,00to100,highNoise,11.5556231143801,501,7119,4.0,11.0000020000002,,yes,43,3.02612726506532,501,7119,11.5,12.0,23.0,12.0,23.0,12.0,23.0
03,6,3,00to050,00to100,highNoise,23.0463339143798,1175,3016,13.0,11.0000003,,yes,43,16.7523209549072,1175,3016,23.0,23.5,34.5,23.5,34.5,23.5,34.5
03,6,4,00to050,00to100,highNoise,34.5570787536776,1025,3780,13.0,11.0000006999999,,yes,43,11.6600529100529,1025,3780,34.5,35.0,46.0,35.0,46.0,35.0,46.0
03,6,5,00to050,00to100,highNoise,46.0529820536776,1175,5088,9.0,11.0000014000002,,yes,43,9.93022798742138,1175,5088,46.0,46.5,57.5,46.5,57.5,46.5,57.5
03,6,6,00to050,00to100,highNoise,57.5478187929752,342,1087,13.0,11.0000003999999,,yes,43,13.5289788408464,342,1087,57.5,58.0,69.0,58.0,69.0,58.0,69.0
03,6,7,00to050,00to100,highNoise,69.0459317929754,419,4706,5.0,11.0000003999999,,yes,43,3.82851678708032,419,4706,69.0,69.5,80.5,69.5,80.5,69.5,80.5
03,6,8,00to050,00to100,highNoise,80.5439872143797,124,4035,2.0,11.0000003,,yes,43,1.32143742255266,124,4035,80.5,81.0,92.0,81.0,92.0,81.0,92.0
03,6,9,00to050,00to100,highNoise,92.0558445143797,738,2958,13.0,11.0000008000002,,yes,43,10.7281947261663,738,2958,92.0,92.5,103.5,92.5,103.5,92.5,103.5
03,6,10,00to050,00to100,highNoise,103.5599378,2841,6608,19.0,11.0000018000001,,yes,43,18.4871368038741,2841,6608,103.5,104.0,115.0,104.0,115.0,104.0,115.0
03,6,11,00to050,00to100,highNoise,115.045982853678,1165,2596,20.0,11.0000020000002,,yes,43,19.2969953775039,1165,2596,115.0,115.5,126.5,115.5,126.5,115.5,126.5
03,6,12,00to050,00to100,highNoise,126.551844353678,849,7755,5.0,11.0000021000001,,yes,43,4.70754352030948,849,7755,126.5,127.0,138.0,127.0,138.0,127.0,138.0
03,6,13,00to050,00to100,highNoise,138.026867192975,3712,7901,20.0,11.0000009,,yes,43,20.2019997468675,3712,7901,138.0,138.5,149.5,138.5,149.5,138.5,149.5
03,6,14,00to050,00to100,highNoise,149.55060731438,836,5605,6.0,11.0000005000002,,yes,43,6.4135593220339,836,5605,149.5,150.0,161.0,150.0,161.0,150.0,161.0
03,6,15,00to050,00to100,highNoise,161.04269631438,779,5961,8.0,11.0000006,,yes,43,5.61935916792484,779,5961,161.0,161.5,172.5,161.5,172.5,161.5,172.5
03,6,16,00to050,00to100,highNoise,172.553897478595,98,9898,1.0,11.0000003000005,,yes,43,0.425742574257426,98,9898,172.5,173.0,184.0,173.0,184.0,173.0,184.0
03,6,17,00to050,00to100,highNoise,184.060348153677,488,1380,13.0,11.0,,yes,43,15.2057971014493,488,1380,184.0,184.5,195.5,184.5,195.5,184.5,195.5
03,6,18,00to050,00to100,highNoise,195.527329932272,154,3195,3.0,11.0000007000008,,yes,43,2.07261345852895,154,3195,195.5,196.0,207.0,196.0,207.0,196.0,207.0
03,6,19,00to050,00to100,highNoise,207.053351575083,3072,9295,13.0,11.0000019000008,,yes,43,14.2115115653577,3072,9295,207.0,207.5,218.5,207.5,218.5,207.5,218.5
03,6,20,00to050,00to100,highNoise,218.55676311438,2334,8049,11.0,11.0000002000006,,yes,43,12.4688781215058,2334,8049,218.5,219.0,230.0,219.0,230.0,219.0,230.0
03,6,21,00to050,00to100,highNoise,230.044763053677,2718,7340,16.0,11.0000017000002,,yes,43,15.9228882833787,2718,7340,230.0,230.5,241.5,230.5,241.5,230.5,241.5
03,6,22,00to050,00to100,highNoise,241.54339991438,795,4188,7.0,11.0000014000007,,yes,43,8.16260744985673,795,4188,241.5,242.0,253.0,242.0,253.0,242.0,253.0
03,6,23,00to050,00to100,highNoise,253.05124921438,2898,7060,17.0,11.0000002000006,,yes,43,17.6507082152974,2898,7060,253.0,253.5,264.5,253.5,264.5,253.5,264.5
03,6,24,00to050,00to100,highNoise,264.553213853677,967,1968,20.0,11.0000017000002,,yes,43,21.1285569105691,967,1968,264.5,265.0,276.0,265.0,276.0,265.0,276.0
03,6,25,00to050,00to100,highNoise,276.047483453677,1265,7478,11.0,11.0000022000004,,yes,43,7.27400374431666,1265,7478,276.0,276.5,287.5,276.5,287.5,276.5,287.5
04,1,1,00to100,00to100,lowNoise,0.154341968500603,15,100,6.0,11.0000006,,yes,43,6.45,15,100,0.0,0.5,11.5,0.5,11.5,0.5,11.5
04,1,2,00to100,00to100,lowNoise,11.6794096513754,67,100,30.0,11.0000019000001,,yes,43,28.81,67,100,11.5,12.0,23.0,12.0,23.0,12.0,23.0
04,1,3,00to100,00to100,lowNoise,23.0645811513755,77,100,33.0,11.0000021000001,,yes,43,33.11,77,100,23.0,23.5,34.5,23.5,34.5,23.5,34.5
04,1,4,00to100,00to100,lowNoise,34.5534115123337,9,100,3.0,11.0000010000001,,yes,43,3.87,9,100,34.5,35.0,46.0,35.0,46.0,35.0,46.0
04,1,5,00to100,00to100,lowNoise,46.0625540513754,85,100,37.0,11.0,,yes,43,36.55,85,100,46.0,46.5,57.5,46.5,57.5,46.5,57.5
04,1,6,00to100,00to100,lowNoise,57.5528726513755,65,100,29.0,11.0000002000002,,yes,43,27.95,65,100,57.5,58.0,69.0,58.0,69.0,58.0,69.0
04,1,7,00to100,00to100,lowNoise,69.0567762513754,33,100,14.0,11.0000012,,yes,43,14.19,33,100,69.0,69.5,80.5,69.5,80.5,69.5,80.5
04,1,8,00to100,00to100,lowNoise,80.5422558513753,91,100,40.0,11.0000081000001,,yes,43,39.13,91,100,80.5,81.0,92.0,81.0,92.0,81.0,92.0
04,1,9,00to100,00to100,lowNoise,92.0585138513754,5,100,2.0,11.0000002000002,,yes,43,2.15,5,100,92.0,92.5,103.5,92.5,103.5,92.5,103.5
04,1,10,00to100,00to100,lowNoise,103.527391590417,25,100,11.0,11.0000019000001,,yes,43,10.75,25,100,103.5,104.0,115.0,104.0,115.0,104.0,115.0
04,1,11,00to100,00to100,lowNoise,115.050358490417,39,100,16.0,11.0000008,,yes,43,16.77,39,100,115.0,115.5,126.5,115.5,126.5,115.5,126.5
04,1,12,00to100,00to100,lowNoise,126.556385307542,81,100,35.0,11.0000015000001,,yes,43,34.83,81,100,126.5,127.0,138.0,127.0,138.0,127.0,138.0
04,1,13,00to100,00to100,lowNoise,138.043877629459,49,100,20.0,11.0000019000001,,yes,43,21.07,49,100,138.0,138.5,149.5,138.5,149.5,138.5,149.5
04,1,14,00to100,00to100,lowNoise,149.542457051376,45,100,18.0,11.0000021000001,,yes,43,19.35,45,100,149.5,150.0,161.0,150.0,161.0,150.0,161.0
04,1,15,00to100,00to100,lowNoise,161.046756790417,19,100,8.0,11.0000012,,yes,43,8.17,19,100,161.0,161.5,172.5,161.5,172.5,161.5,172.5
04,1,16,00to100,00to100,lowNoise,172.547042851375,21,100,9.0,11.0000019000001,,yes,43,9.03,21,100,172.5,173.0,184.0,173.0,184.0,173.0,184.0
04,1,17,00to100,00to100,lowNoise,184.042327951375,73,100,31.0,11.0,,yes,43,31.39,73,100,184.0,184.5,195.5,184.5,195.5,184.5,195.5
04,1,18,00to100,00to100,lowNoise,195.549822212334,35,100,15.0,11.0000012,,yes,43,15.05,35,100,195.5,196.0,207.0,196.0,207.0,196.0,207.0
04,1,19,00to100,00to100,lowNoise,207.047218551375,99,100,42.0,11.0000014000002,,yes,43,42.57,99,100,207.0,207.5,218.5,207.5,218.5,207.5,218.5
04,1,20,00to100,00to100,lowNoise,218.547406351375,55,100,21.0,11.0000021000001,,yes,43,23.65,55,100,218.5,219.0,230.0,219.0,230.0,219.0,230.0
04,1,21,00to100,00to100,lowNoise,230.057665951375,89,100,39.0,11.0000009,,yes,43,38.27,89,100,230.0,230.5,241.5,230.5,241.5,230.5,241.5
04,1,22,00to100,00to100,lowNoise,241.542657351375,57,100,27.0,11.0000020000002,,yes,43,24.51,57,100,241.5,242.0,253.0,242.0,253.0,242.0,253.0
04,1,23,00to100,00to100,lowNoise,253.059591673292,75,100,31.0,11.0000020000002,,yes,43,32.25,75,100,253.0,253.5,264.5,253.5,264.5,253.5,264.5
04,1,24,00to100,00to100,lowNoise,264.548783051375,51,100,21.5,11.0000003,,yes,43,21.93,51,100,264.5,265.0,276.0,265.0,276.0,265.0,276.0
04,1,25,00to100,00to100,lowNoise,276.051810351375,61,100,28.0,11.0000005000002,,yes,43,26.23,61,100,276.0,276.5,287.5,276.5,287.5,276.5,287.5
04,1,26,00to100,00to100,lowNoise,287.560804112334,93,100,40.0,11.0000018000001,,yes,43,39.99,93,100,287.5,288.0,299.0,288.0,299.0,288.0,299.0
04,1,27,00to100,00to100,lowNoise,299.058637190417,37,100,15.0,11.0000003,,yes,43,15.91,37,100,299.0,299.5,310.5,299.5,310.5,299.5,310.5
04,1,28,00to100,00to100,lowNoise,310.554888951375,71,100,30.0,11.0000008000002,,yes,43,30.53,71,100,310.5,311.0,322.0,311.0,322.0,311.0,322.0
04,1,29,00to100,00to100,lowNoise,322.041580751375,95,100,41.0,11.0000021000001,,yes,43,40.85,95,100,322.0,322.5,333.5,322.5,333.5,322.5,333.5
04,1,30,00to100,00to100,lowNoise,333.543276851375,83,100,35.0,11.0000003,,yes,43,35.69,83,100,333.5,334.0,345.0,334.0,345.0,334.0,345.0
04,1,31,00to100,00to100,lowNoise,345.056512790417,63,100,28.0,11.0000009,,yes,43,27.09,63,100,345.0,345.5,356.5,345.5,356.5,345.5,356.5
04,1,32,00to100,00to100,lowNoise,356.559618651375,87,100,37.0,11.0000020000002,,yes,43,37.41,87,100,356.5,357.0,368.0,357.0,368.0,357.0,368.0
04,1,33,00to100,00to100,lowNoise,368.052067751375,29,100,12.0,11.0000002000002,122.0,yes,43,12.47,29,100,368.0,368.5,379.5,368.5,379.5,368.5,379.5
04,1,34,00to100,00to100,lowNoise,379.563712512333,59,100,27.0,11.0000009,,yes,43,25.37,59,100,379.5,380.0,391.0,380.0,391.0,380.0,391.0
04,1,35,00to100,00to100,lowNoise,391.053212251375,79,100,34.0,11.0000020000002,,yes,43,33.97,79,100,391.0,391.5,402.5,391.5,402.5,391.5,402.5
04,1,36,00to100,00to100,lowNoise,402.553831551375,17,100,6.0,11.0000003,,yes,43,7.31,17,100,402.5,403.0,414.0,403.0,414.0,403.0,414.0
04,1,37,00to100,00to100,lowNoise,414.050134651375,47,100,20.0,11.0000008000002,,yes,43,20.21,47,100,414.0,414.5,425.5,414.5,425.5,414.5,425.5
04,1,38,00to100,00to100,lowNoise,425.543829846584,11,100,4.0,11.0000018000001,,yes,43,4.73,11,100,425.5,426.0,437.0,426.0,437.0,426.0,437.0
04,1,39,00to100,00to100,lowNoise,437.054944051375,3,100,1.0,11.0000003,,yes,43,1.29,3,100,437.0,437.5,448.5,437.5,448.5,437.5,448.5
04,1,40,00to100,00to100,lowNoise,448.546683590417,53,100,21.5,11.0000018000001,,yes,43,22.79,53,100,448.5,449.0,460.0,449.0,460.0,449.0,460.0
04,1,41,00to100,00to100,lowNoise,460.055391651375,97,100,42.0,11.0000009999999,,yes,43,41.71,97,100,460.0,460.5,471.5,460.5,471.5,460.5,471.5
04,1,42,00to100,00to100,lowNoise,471.555365851375,23,100,9.0,11.0000020000002,,yes,43,9.89,23,100,471.5,472.0,483.0,472.0,483.0,472.0,483.0
04,1,43,00to100,00to100,lowNoise,483.058138651375,31,100,13.0,11.0000012999999,,yes,43,13.33,31,100,483.0,483.5,494.5,483.5,494.5,483.5,494.5
04,1,44,00to100,00to100,lowNoise,494.550435851375,1,100,0.5,11.0000005000002,,yes,43,0.43,1,100,494.5,495.0,506.0,495.0,506.0,495.0,506.0
04,1,45,00to100,00to100,lowNoise,506.048809751375,41,100,17.0,11.0000015999999,,yes,43,17.63,41,100,506.0,506.5,517.5,506.5,517.5,506.5,517.5
04,1,46,00to100,00to100,lowNoise,517.543387751375,7,100,3.0,11.0000006,,yes,43,3.01,7,100,517.5,518.0,529.0,518.0,529.0,518.0,529.0
04,1,47,00to100,00to100,lowNoise,529.047828029459,43,100,17.0,11.0000002000002,,yes,43,18.49,43,100,529.0,529.5,540.5,529.5,540.5,529.5,540.5
04,1,48,00to100,00to100,lowNoise,540.5267908,27,100,11.0,11.0000008000002,,yes,43,11.61,27,100,540.5,541.0,552.0,541.0,552.0,541.0,552.0
04,1,49,00to100,00to100,lowNoise,552.058225151375,69,100,28.0,11.0000011000002,,yes,43,29.67,69,100,552.0,552.5,563.5,552.5,563.5,552.5,563.5
04,1,50,00to100,00to100,lowNoise,563.559516951375,13,100,5.0,11.0000021000001,,yes,43,5.59,13,100,563.5,564.0,575.0,564.0,575.0,564.0,575.0
04,2,1,00to100,00to100,highNoise,0.0735246513750099,4038,5529,35.0,11.0000010999997,,yes,43,31.4042322300597,4038,5529,0.0,0.5,11.5,0.5,11.5,0.5,11.5
04,2,2,00to100,00to100,highNoise,11.5535337904171,849,7755,3.0,11.0000019999998,,yes,43,4.70754352030948,849,7755,11.5,12.0,23.0,12.0,23.0,12.0,23.0
04,2,3,00to100,00to100,highNoise,23.050623151375,7754,8522,35.0,11.0000011999996,,yes,43,39.1248533208167,7754,8522,23.0,23.5,34.5,23.5,34.5,23.5,34.5
04,2,4,00to100,00to100,highNoise,34.5463568856253,967,1968,2.0,11.0000006999999,,yes,43,21.1285569105691,967,1968,34.5,35.0,46.0,35.0,46.0,35.0,46.0
04,2,5,00to100,00to100,highNoise,46.0506441513749,6455,7249,30.0,11.0000019999998,,yes,43,38.290108980549,6455,7249,46.0,46.5,57.5,46.5,57.5,46.5,57.5
04,2,6,00to100,00to100,highNoise,57.5531570513749,4983,9772,17.0,11.0000010999997,,yes,43,21.9268317642243,4983,9772,57.5,58.0,69.0,58.0,69.0,58.0,69.0
04,2,7,00to100,00to100,highNoise,69.0600174513747,4807,5647,40.0,11.0000020999996,,yes,43,36.6036833717018,4807,5647,69.0,69.5,80.5,69.5,80.5,69.5,80.5
04,2,8,00to100,00to100,highNoise,80.5534439513749,3836,4851,35.0,11.0000017999996,,yes,43,34.002886002886,3836,4851,80.5,81.0,92.0,81.0,92.0,81.0,92.0
04,2,9,00to100,00to100,highNoise,92.0471838513749,5283,9970,26.0,11.0000010999997,,yes,43,22.7852557673019,5283,9970,92.0,92.5,103.5,92.5,103.5,92.5,103.5
04,2,10,00to100,00to100,highNoise,103.543646907542,1175,3016,14.0,11.0000006999999,,yes,43,16.7523209549072,1175,3016,103.5,104.0,115.0,104.0,115.0,104.0,115.0
04,2,11,00to100,00to100,highNoise,115.044869651375,342,1087,17.0,11.0000013999997,,yes,43,13.5289788408464,342,1087,115.0,115.5,126.5,115.5,126.5,115.5,126.5
04,2,12,00to100,00to100,highNoise,126.542645451375,488,1380,11.0,11.0000010999997,,yes,43,15.2057971014493,488,1380,126.5,127.0,138.0,127.0,138.0,127.0,138.0
04,2,13,00to100,00to100,highNoise,138.065833151375,2099,2403,35.0,11.0000004999997,,yes,43,37.5601331668747,2099,2403,138.0,138.5,149.5,138.5,149.5,138.5,149.5
04,2,14,00to100,00to100,highNoise,149.551018451375,7175,7243,40.0,11.0000011999996,,yes,43,42.5962998757421,7175,7243,149.5,150.0,161.0,150.0,161.0,150.0,161.0
04,2,15,00to100,00to100,highNoise,161.0553258685,1165,2596,17.0,11.0000020999996,,yes,43,19.2969953775039,1165,2596,161.0,161.5,172.5,161.5,172.5,161.5,172.5
04,2,16,00to100,00to100,highNoise,172.547895851375,836,5605,6.0,11.0000007999997,,yes,43,6.4135593220339,836,5605,172.5,173.0,184.0,173.0,184.0,173.0,184.0
04,2,17,00to100,00to100,highNoise,184.053532751375,419,4706,6.0,11.0000018999999,,yes,43,3.82851678708032,419,4706,184.0,184.5,195.5,184.5,195.5,184.5,195.5
04,2,18,00to100,00to100,highNoise,195.555393951375,867,4114,11.0,11.0000016999998,,yes,43,9.06198347107438,867,4114,195.5,196.0,207.0,196.0,207.0,196.0,207.0
04,2,19,00to100,00to100,highNoise,207.053290651375,1869,2716,26.0,11.0000012999999,,yes,43,29.590206185567,1869,2716,207.0,207.5,218.5,207.5,218.5,207.5,218.5
04,2,20,00to100,00to100,highNoise,218.547912051375,1265,7478,6.0,11.0000017999996,,yes,43,7.27400374431666,1265,7478,218.5,219.0,230.0,219.0,230.0,219.0,230.0
04,2,21,00to100,00to100,highNoise,230.051056251375,124,4035,1.0,11.0000004999997,,yes,43,1.32143742255266,124,4035,230.0,230.5,241.5,230.5,241.5,230.5,241.5
04,2,22,00to100,00to100,highNoise,241.558510790417,6442,9076,30.0,11.0000017999996,,yes,43,30.5207139709123,6442,9076,241.5,242.0,253.0,242.0,253.0,242.0,253.0
04,2,23,00to100,00to100,highNoise,253.057355812333,962,1636,,11.0000007999997,,no answer,43,25.2848410757946,962,1636,253.0,253.5,264.5,253.5,264.5,253.5,264.5
04,2,24,00to100,00to100,highNoise,264.551791912333,1025,3780,13.0,11.0000010999997,,yes,43,11.6600529100529,1025,3780,264.5,265.0,276.0,265.0,276.0,265.0,276.0
04,2,25,00to100,00to100,highNoise,276.042828273292,3101,5639,17.0,11.0000006999999,,yes,43,23.6465685405214,3101,5639,276.0,276.5,287.5,276.5,287.5,276.5,287.5
04,2,26,00to100,00to100,highNoise,287.557888912334,795,4188,8.0,11.0000003999999,,yes,43,8.16260744985673,795,4188,287.5,288.0,299.0,288.0,299.0,288.0,299.0
04,2,27,00to100,00to100,highNoise,299.048681629459,6015,8980,26.0,11.0000012999999,,yes,43,28.8023385300668,6015,8980,299.0,299.5,310.5,299.5,310.5,299.5,310.5
04,2,28,00to100,00to100,highNoise,310.546190651375,779,5961,9.0,11.0000009999999,,yes,43,5.61935916792484,779,5961,310.5,311.0,322.0,311.0,322.0,311.0,322.0
04,2,29,00to100,00to100,highNoise,322.042622451375,6210,7476,40.0,11.0000001999997,,yes,43,35.7182985553772,6210,7476,322.0,322.5,333.5,322.5,333.5,322.5,333.5
04,2,30,00to100,00to100,highNoise,333.549981351375,4239,6519,30.0,11.0000009999999,,yes,43,27.9608835710999,4239,6519,333.5,334.0,345.0,334.0,345.0,334.0,345.0
04,2,31,00to100,00to100,highNoise,345.052349912333,98,9898,1.0,11.0000012999999,,yes,43,0.425742574257426,98,9898,345.0,345.5,356.5,345.5,356.5,345.5,356.5
04,2,32,00to100,00to100,highNoise,356.554945151375,7379,7608,42.0,11.0000012999999,,yes,43,41.7057045215563,7379,7608,356.5,357.0,368.0,357.0,368.0,357.0,368.0
04,2,33,00to100,00to100,highNoise,368.053774951375,5316,8435,26.0,11.0000003999999,,yes,43,27.0999407231772,5316,8435,368.0,368.5,379.5,368.5,379.5,368.5,379.5
04,2,34,00to100,00to100,highNoise,379.543285351375,2772,4872,26.0,11.0000016999998,,yes,43,24.4655172413793,2772,4872,379.5,380.0,391.0,380.0,391.0,380.0,391.0
04,2,35,00to100,00to100,highNoise,391.049566751375,154,3195,2.0,11.0,,yes,43,2.07261345852895,154,3195,391.0,391.5,402.5,391.5,402.5,391.5,402.5
04,2,36,00to100,00to100,highNoise,402.528180912333,5329,6577,35.0,11.0,,yes,43,34.840656834423,5329,6577,402.5,403.0,414.0,403.0,414.0,403.0,414.0
04,2,37,00to100,00to100,highNoise,414.051785151375,2841,6608,17.0,11.0000015999999,,yes,43,18.4871368038741,2841,6608,414.0,414.5,425.5,414.5,425.5,414.5,425.5
04,2,38,00to100,00to100,highNoise,425.543913890417,2173,2817,30.0,11.0000016999998,,yes,43,33.1696840610579,2173,2817,425.5,426.0,437.0,426.0,437.0,426.0,437.0
04,2,39,00to100,00to100,highNoise,437.056094751375,3712,7901,21.0,11.0000011999996,,yes,43,20.2019997468675,3712,7901,437.0,437.5,448.5,437.5,448.5,437.5,448.5
04,2,40,00to100,00to100,highNoise,448.549956912334,959,1585,19.0,11.0000006999999,,yes,43,26.0170347003155,959,1585,448.5,449.0,460.0,449.0,460.0,449.0,460.0
04,2,41,00to100,00to100,highNoise,460.057953890417,2898,7060,13.0,11.0000018999999,,yes,43,17.6507082152974,2898,7060,460.0,460.5,471.5,460.5,471.5,460.5,471.5
04,2,42,00to100,00to100,highNoise,471.556812951375,1175,5088,10.0,11.0000014999996,,yes,43,9.93022798742138,1175,5088,471.5,472.0,483.0,472.0,483.0,472.0,483.0
04,2,43,00to100,00to100,highNoise,483.055191551375,3072,9295,13.0,11.0000008999996,,yes,43,14.2115115653577,3072,9295,483.0,483.5,494.5,483.5,494.5,483.5,494.5
04,2,44,00to100,00to100,highNoise,494.551436051375,501,7119,1.0,11.0000004999997,,yes,43,3.02612726506532,501,7119,494.5,495.0,506.0,495.0,506.0,495.0,506.0
04,2,45,00to100,00to100,highNoise,506.042880729459,738,2958,9.0,11.0000000999999,,yes,43,10.7281947261663,738,2958,506.0,506.5,517.5,506.5,517.5,506.5,517.5
04,2,46,00to100,00to100,highNoise,517.555233451375,2718,7340,13.0,11.0000004999997,,yes,43,15.9228882833787,2718,7340,517.5,518.0,529.0,518.0,529.0,518.0,529.0
04,2,47,00to100,00to100,highNoise,529.062133951375,4248,4482,36.0,11.0000012999999,,yes,43,40.7550200803213,4248,4482,529.0,529.5,540.5,529.5,540.5,529.5,540.5
04,2,48,00to100,00to100,highNoise,540.547462873292,6281,8371,30.0,11.0000006999999,,yes,43,32.2641261498029,6281,8371,540.5,541.0,552.0,541.0,552.0,541.0,552.0
04,2,49,00to100,00to100,highNoise,552.050053351375,3944,4241,38.0,11.0000013999997,,yes,43,39.9886819146428,3944,4241,552.0,552.5,563.5,552.5,563.5,552.5,563.5
04,2,50,00to100,00to100,highNoise,563.549192051375,2334,8049,10.0,11.0000017999996,,yes,43,12.4688781215058,2334,8049,563.5,564.0,575.0,564.0,575.0,564.0,575.0
04,3,1,50to100,00to100,lowNoise,0.0653316952088971,97,100,42.0,11.0000021000001,,yes,43,41.71,97,100,0.0,0.5,11.5,0.5,11.5,0.5,11.5
04,3,2,50to100,00to100,lowNoise,11.5508773513752,79,100,34.0,11.0000021000001,,yes,43,33.97,79,100,11.5,12.0,23.0,12.0,23.0,12.0,23.0
04,3,3,50to100,00to100,lowNoise,23.0486141904175,95,100,41.0,11.0000006,,yes,43,40.85,95,100,23.0,23.5,34.5,23.5,34.5,23.5,34.5
04,3,4,50to100,00to100,lowNoise,34.5471420123336,73,100,30.0,11.0000002000002,,yes,43,31.39,73,100,34.5,35.0,46.0,35.0,46.0,35.0,46.0
04,3,5,50to100,00to100,lowNoise,46.0271100952086,65,100,27.0,11.0000017000002,,yes,43,27.95,65,100,46.0,46.5,57.5,46.5,57.5,46.5,57.5
04,3,6,50to100,00to100,lowNoise,57.5531818513755,89,100,39.0,11.0000007000003,,yes,43,38.27,89,100,57.5,58.0,69.0,58.0,69.0,58.0,69.0
04,3,7,50to100,00to100,lowNoise,69.0466851904175,51,100,21.5,11.0000021000001,,yes,43,21.93,51,100,69.0,69.5,80.5,69.5,80.5,69.5,80.5
04,3,8,50to100,00to100,lowNoise,80.5569335513751,61,100,26.0,11.0000005000002,,yes,43,26.23,61,100,80.5,81.0,92.0,81.0,92.0,81.0,92.0
04,3,9,50to100,00to100,lowNoise,92.0446306513754,59,100,25.0,11.0000011000002,,yes,43,25.37,59,100,92.0,92.5,103.5,92.5,103.5,92.5,103.5
04,3,10,50to100,00to100,lowNoise,103.558267251375,53,100,22.0,11.0000001000003,,yes,43,22.79,53,100,103.5,104.0,115.0,104.0,115.0,104.0,115.0
04,3,11,50to100,00to100,lowNoise,115.056220112334,75,100,32.0,11.0000007000003,,yes,43,32.25,75,100,115.0,115.5,126.5,115.5,126.5,115.5,126.5
04,3,12,50to100,00to100,lowNoise,126.5281571,69,100,29.0,11.0000015000001,,yes,43,29.67,69,100,126.5,127.0,138.0,127.0,138.0,127.0,138.0
04,3,13,50to100,00to100,lowNoise,138.048915451375,91,100,40.0,11.0000007000003,,yes,43,39.13,91,100,138.0,138.5,149.5,138.5,149.5,138.5,149.5
04,3,14,50to100,00to100,lowNoise,149.549309751375,83,100,35.0,11.0000015000001,,yes,43,35.69,83,100,149.5,150.0,161.0,150.0,161.0,150.0,161.0
04,3,15,50to100,00to100,lowNoise,161.055131112334,87,100,36.0,11.0000016000004,,yes,43,37.41,87,100,161.0,161.5,172.5,161.5,172.5,161.5,172.5
04,3,16,50to100,00to100,lowNoise,172.549235912334,63,100,27.0,11.0000013000003,,yes,43,27.09,63,100,172.5,173.0,184.0,173.0,184.0,173.0,184.0
04,3,17,50to100,00to100,lowNoise,184.054200734251,93,100,40.0,11.0000008000002,,yes,43,39.99,93,100,184.0,184.5,195.5,184.5,195.5,184.5,195.5
04,3,18,50to100,00to100,lowNoise,195.545966751375,55,100,22.0,11.0000002000002,,yes,43,23.65,55,100,195.5,196.0,207.0,196.0,207.0,196.0,207.0
04,3,19,50to100,00to100,lowNoise,207.053573951375,77,100,33.0,11.0000015000001,,yes,43,33.11,77,100,207.0,207.5,218.5,207.5,218.5,207.5,218.5
04,3,20,50to100,00to100,lowNoise,218.542791151375,81,100,35.0,11.0000013000003,,yes,43,34.83,81,100,218.5,219.0,230.0,219.0,230.0,219.0,230.0
04,3,21,50to100,00to100,lowNoise,230.053916451375,67,100,28.0,11.0000018000001,,yes,43,28.81,67,100,230.0,230.5,241.5,230.5,241.5,230.5,241.5
04,3,22,50to100,00to100,lowNoise,241.548465312334,71,100,30.0,11.0000017000002,,yes,43,30.53,71,100,241.5,242.0,253.0,242.0,253.0,242.0,253.0
04,3,23,50to100,00to100,lowNoise,253.053907851375,99,100,42.0,11.0000021999999,,yes,43,42.57,99,100,253.0,253.5,264.5,253.5,264.5,253.5,264.5
04,3,24,50to100,00to100,lowNoise,264.547593851375,57,100,24.0,11.0000016000004,,yes,43,24.51,57,100,264.5,265.0,276.0,265.0,276.0,265.0,276.0
04,3,25,50to100,00to100,lowNoise,276.048763090417,85,100,37.0,11.0000018000001,,yes,43,36.55,85,100,276.0,276.5,287.5,276.5,287.5,276.5,287.5
04,4,1,00to050,00to100,lowNoise,0.0553076513751876,17,100,7.0,11.0000003,,yes,43,7.31,17,100,0.0,0.5,11.5,0.5,11.5,0.5,11.5
04,4,2,00to050,00to100,lowNoise,11.5601264513753,11,100,4.0,11.0000003,,yes,43,4.73,11,100,11.5,12.0,23.0,12.0,23.0,12.0,23.0
04,4,3,00to050,00to100,lowNoise,23.054191251375,25,100,10.0,11.0000009,,yes,43,10.75,25,100,23.0,23.5,34.5,23.5,34.5,23.5,34.5
04,4,4,00to050,00to100,lowNoise,34.5483017513752,1,100,0.5,11.0000015999999,,yes,43,0.43,1,100,34.5,35.0,46.0,35.0,46.0,35.0,46.0
04,4,5,00to050,00to100,lowNoise,46.0487117904172,41,100,18.0,11.0,,yes,43,17.63,41,100,46.0,46.5,57.5,46.5,57.5,46.5,57.5
04,4,6,00to050,00to100,lowNoise,57.5501247513753,23,100,10.0,11.0000011000002,,yes,43,9.89,23,100,57.5,58.0,69.0,58.0,69.0,58.0,69.0
04,4,7,00to050,00to100,lowNoise,69.053601751375,9,100,3.0,11.0000018999999,,yes,43,3.87,9,100,69.0,69.5,80.5,69.5,80.5,69.5,80.5
04,4,8,00to050,00to100,lowNoise,80.5595082904174,27,100,12.0,11.0000018999999,,yes,43,11.61,27,100,80.5,81.0,92.0,81.0,92.0,81.0,92.0
04,4,9,00to050,00to100,lowNoise,92.0432283513751,49,100,21.0,11.0000009,,yes,43,21.07,49,100,92.0,92.5,103.5,92.5,103.5,92.5,103.5
04,4,10,00to050,00to100,lowNoise,103.554137912333,35,100,14.0,11.0000005000002,,yes,43,15.05,35,100,103.5,104.0,115.0,104.0,115.0,104.0,115.0
04,4,11,00to050,00to100,lowNoise,115.049327551375,21,100,9.0,11.0000018999999,,yes,43,9.03,21,100,115.0,115.5,126.5,115.5,126.5,115.5,126.5
04,4,12,00to050,00to100,lowNoise,126.552020090417,19,100,8.0,11.0000006,,yes,43,8.17,19,100,126.5,127.0,138.0,127.0,138.0,127.0,138.0
04,4,13,00to050,00to100,lowNoise,138.060293951375,13,100,4.0,11.0000018000001,,yes,43,5.59,13,100,138.0,138.5,149.5,138.5,149.5,138.5,149.5
04,4,14,00to050,00to100,lowNoise,149.546002251375,45,100,18.0,11.0000009999999,,yes,43,19.35,45,100,149.5,150.0,161.0,150.0,161.0,150.0,161.0
04,4,15,00to050,00to100,lowNoise,161.050473695208,39,100,16.0,11.0000003999999,,yes,43,16.77,39,100,161.0,161.5,172.5,161.5,172.5,161.5,172.5
04,4,16,00to050,00to100,lowNoise,172.548287112334,47,100,20.0,11.0000006,,yes,43,20.21,47,100,172.5,173.0,184.0,173.0,184.0,173.0,184.0
04,4,17,00to050,00to100,lowNoise,184.057543651375,15,100,6.0,11.0000015000001,,yes,43,6.45,15,100,184.0,184.5,195.5,184.5,195.5,184.5,195.5
04,4,18,00to050,00to100,lowNoise,195.543636207542,37,100,15.0,11.0000015000001,,yes,43,15.91,37,100,195.5,196.0,207.0,196.0,207.0,196.0,207.0
04,4,19,00to050,00to100,lowNoise,207.049175451375,29,100,12.0,11.0000009,122.0,yes,43,12.47,29,100,207.0,207.5,218.5,207.5,218.5,207.5,218.5
04,4,20,00to050,00to100,lowNoise,218.556828351375,31,100,13.0,11.0000014000002,,yes,43,13.33,31,100,218.5,219.0,230.0,219.0,230.0,219.0,230.0
04,4,21,00to050,00to100,lowNoise,230.050357351375,33,100,13.0,11.0000000999999,,yes,43,14.19,33,100,230.0,230.5,241.5,230.5,241.5,230.5,241.5
04,4,22,00to050,00to100,lowNoise,241.551517190417,7,100,2.0,11.0000020000002,,yes,43,3.01,7,100,241.5,242.0,253.0,242.0,253.0,242.0,253.0
04,4,23,00to050,00to100,lowNoise,253.052266451375,5,100,1.0,11.0000015999999,,yes,43,2.15,5,100,253.0,253.5,264.5,253.5,264.5,253.5,264.5
04,4,24,00to050,00to100,lowNoise,264.558532451375,43,100,18.0,11.0000014000002,,yes,43,18.49,43,100,264.5,265.0,276.0,265.0,276.0,265.0,276.0
04,4,25,00to050,00to100,lowNoise,276.048563390417,3,100,1.0,11.0000006999999,,yes,43,1.29,3,100,276.0,276.5,287.5,276.5,287.5,276.5,287.5
04,5,1,50to100,00to100,highNoise,0.0557402513750276,6455,7249,35.0,11.0000020000002,,yes,43,38.290108980549,6455,7249,0.0,0.5,11.5,0.5,11.5,0.5,11.5
04,5,2,50to100,00to100,highNoise,11.5442260513751,2099,2403,32.0,11.0000020000002,,yes,43,37.5601331668747,2099,2403,11.5,12.0,23.0,12.0,23.0,12.0,23.0
04,5,3,50to100,00to100,highNoise,23.0530345513753,7175,7243,40.0,11.0,,yes,43,42.5962998757421,7175,7243,23.0,23.5,34.5,23.5,34.5,23.5,34.5
04,5,4,50to100,00to100,highNoise,34.5566859904175,6015,8980,28.0,11.0000005000002,,yes,43,28.8023385300668,6015,8980,34.5,35.0,46.0,35.0,46.0,35.0,46.0
04,5,5,50to100,00to100,highNoise,46.0573496513753,3836,4851,35.0,11.0000017000002,,yes,43,34.002886002886,3836,4851,46.0,46.5,57.5,46.5,57.5,46.5,57.5
04,5,6,50to100,00to100,highNoise,57.5577525513754,5316,8435,26.0,11.0000018999999,,yes,43,27.0999407231772,5316,8435,57.5,58.0,69.0,58.0,69.0,58.0,69.0
04,5,7,50to100,00to100,highNoise,69.0565584513752,3101,5639,22.0,11.0000015000001,,yes,43,23.6465685405214,3101,5639,69.0,69.5,80.5,69.5,80.5,69.5,80.5
04,5,8,50to100,00to100,highNoise,80.5442892513752,6442,9076,30.0,11.0000018999999,,yes,43,30.5207139709123,6442,9076,80.5,81.0,92.0,81.0,92.0,81.0,92.0
04,5,9,50to100,00to100,highNoise,92.0581344513753,5329,6577,22.0,11.0000018000001,,yes,43,34.840656834423,5329,6577,92.0,92.5,103.5,92.5,103.5,92.5,103.5
04,5,10,50to100,00to100,highNoise,103.558553551375,4248,4482,40.0,11.0000020000002,,yes,43,40.7550200803213,4248,4482,103.5,104.0,115.0,104.0,115.0,104.0,115.0
04,5,11,50to100,00to100,highNoise,115.043422751375,1869,2716,30.0,11.0000003,,yes,43,29.590206185567,1869,2716,115.0,115.5,126.5,115.5,126.5,115.5,126.5
04,5,12,50to100,00to100,highNoise,126.546651851375,7379,7608,40.0,11.0000015000001,,yes,43,41.7057045215563,7379,7608,126.5,127.0,138.0,127.0,138.0,127.0,138.0
04,5,13,50to100,00to100,highNoise,138.047866451375,4038,5529,35.0,11.0000006,,yes,43,31.4042322300597,4038,5529,138.0,138.5,149.5,138.5,149.5,138.5,149.5
04,5,14,50to100,00to100,highNoise,149.553141251375,6210,7476,35.0,11.0000015000001,,yes,43,35.7182985553772,6210,7476,149.5,150.0,161.0,150.0,161.0,150.0,161.0
04,5,15,50to100,00to100,highNoise,161.047312690417,962,1636,22.0,11.0000006999999,,yes,43,25.2848410757946,962,1636,161.0,161.5,172.5,161.5,172.5,161.5,172.5
04,5,16,50to100,00to100,highNoise,172.559848151375,6281,8371,35.0,11.0000004000003,,yes,43,32.2641261498029,6281,8371,172.5,173.0,184.0,173.0,184.0,173.0,184.0
04,5,17,50to100,00to100,highNoise,184.052658151375,959,1585,23.0,11.0000014000002,,yes,43,26.0170347003155,959,1585,184.0,184.5,195.5,184.5,195.5,184.5,195.5
04,5,18,50to100,00to100,highNoise,195.551496851375,4983,9772,22.0,11.0000005000002,,yes,43,21.9268317642243,4983,9772,195.5,196.0,207.0,196.0,207.0,196.0,207.0
04,5,19,50to100,00to100,highNoise,207.057445612334,4807,5647,40.0,11.0000003,,yes,43,36.6036833717018,4807,5647,207.0,207.5,218.5,207.5,218.5,207.5,218.5
04,5,20,50to100,00to100,highNoise,218.558119851375,2173,2817,35.0,11.0000015999999,,yes,43,33.1696840610579,2173,2817,218.5,219.0,230.0,219.0,230.0,219.0,230.0
04,5,21,50to100,00to100,highNoise,230.043214829459,3944,4241,38.0,11.0000018000001,,yes,43,39.9886819146428,3944,4241,230.0,230.5,241.5,230.5,241.5,230.5,241.5
04,5,22,50to100,00to100,highNoise,241.552128451375,4239,6519,26.0,11.0000012,,yes,43,27.9608835710999,4239,6519,241.5,242.0,253.0,242.0,253.0,242.0,253.0
04,5,23,50to100,00to100,highNoise,253.045458073292,7754,8522,34.0,11.0000005000002,,yes,43,39.1248533208167,7754,8522,253.0,253.5,264.5,253.5,264.5,253.5,264.5
04,5,24,50to100,00to100,highNoise,264.554669112334,5283,9970,22.0,11.0000009999999,,yes,43,22.7852557673019,5283,9970,264.5,265.0,276.0,265.0,276.0,265.0,276.0
04,5,25,50to100,00to100,highNoise,276.041776090417,2772,4872,22.0,11.0000021000001,,yes,43,24.4655172413793,2772,4872,276.0,276.5,287.5,276.5,287.5,276.5,287.5
04,6,1,00to050,00to100,highNoise,0.0664204904173857,2898,7060,17.0,11.0000003999999,,yes,43,17.6507082152974,2898,7060,0.0,0.5,11.5,0.5,11.5,0.5,11.5
04,6,2,00to050,00to100,highNoise,11.5583110513753,2334,8049,10.0,11.0000008000002,,yes,43,12.4688781215058,2334,8049,11.5,12.0,23.0,12.0,23.0,12.0,23.0
04,6,3,00to050,00to100,highNoise,23.0493660294587,1175,3016,13.0,11.0000018999999,,yes,43,16.7523209549072,1175,3016,23.0,23.5,34.5,23.5,34.5,23.5,34.5
04,6,4,00to050,00to100,highNoise,34.5545717904174,836,5605,5.0,11.0000017000002,,yes,43,6.4135593220339,836,5605,34.5,35.0,46.0,35.0,46.0,35.0,46.0
04,6,5,00to050,00to100,highNoise,46.0454178904174,1175,5088,9.0,11.0000012,,yes,43,9.93022798742138,1175,5088,46.0,46.5,57.5,46.5,57.5,46.5,57.5
04,6,6,00to050,00to100,highNoise,57.5505818513752,419,4706,5.0,11.0000009999999,,yes,43,3.82851678708032,419,4706,57.5,58.0,69.0,58.0,69.0,58.0,69.0
04,6,7,00to050,00to100,highNoise,69.0495068513751,1165,2596,18.0,11.0000057999996,,yes,43,19.2969953775039,1165,2596,69.0,69.5,80.5,69.5,80.5,69.5,80.5
04,6,8,00to050,00to100,highNoise,80.5559950513752,867,4114,8.0,11.0000001999997,,yes,43,9.06198347107438,867,4114,80.5,81.0,92.0,81.0,92.0,81.0,92.0
04,6,9,00to050,00to100,highNoise,92.0607431294584,3712,7901,17.0,11.0000018999999,,yes,43,20.2019997468675,3712,7901,92.0,92.5,103.5,92.5,103.5,92.5,103.5
04,6,10,00to050,00to100,highNoise,103.542827129459,154,3195,1.0,11.0000000999999,,yes,43,2.07261345852895,154,3195,103.5,104.0,115.0,104.0,115.0,104.0,115.0
04,6,11,00to050,00to100,highNoise,115.044802751375,795,4188,9.0,11.0000016000004,,yes,43,8.16260744985673,795,4188,115.0,115.5,126.5,115.5,126.5,115.5,126.5
04,6,12,00to050,00to100,highNoise,126.556913851376,2841,6608,18.0,11.0000019999998,,yes,43,18.4871368038741,2841,6608,126.5,127.0,138.0,127.0,138.0,127.0,138.0
04,6,13,00to050,00to100,highNoise,138.046766090417,342,1087,13.0,11.0000013999997,,yes,43,13.5289788408464,342,1087,138.0,138.5,149.5,138.5,149.5,138.5,149.5
04,6,14,00to050,00to100,highNoise,149.550322351375,1025,3780,9.0,11.0000010000003,,yes,43,11.6600529100529,1025,3780,149.5,150.0,161.0,150.0,161.0,150.0,161.0
04,6,15,00to050,00to100,highNoise,161.048949751375,124,4035,1.0,11.0000011000002,,yes,43,1.32143742255266,124,4035,161.0,161.5,172.5,161.5,172.5,161.5,172.5
04,6,16,00to050,00to100,highNoise,172.547941751375,779,5961,6.0,11.0000004000003,,yes,43,5.61935916792484,779,5961,172.5,173.0,184.0,173.0,184.0,173.0,184.0
04,6,17,00to050,00to100,highNoise,184.054451251375,738,2958,10.0,11.0000010000003,,yes,43,10.7281947261663,738,2958,184.0,184.5,195.5,184.5,195.5,184.5,195.5
04,6,18,00to050,00to100,highNoise,195.546935951375,488,1380,13.0,11.0000005000002,,yes,43,15.2057971014493,488,1380,195.5,196.0,207.0,196.0,207.0,196.0,207.0
04,6,19,00to050,00to100,highNoise,207.055562190417,967,1968,18.0,11.0000008999996,,yes,43,21.1285569105691,967,1968,207.0,207.5,218.5,207.5,218.5,207.5,218.5
04,6,20,00to050,00to100,highNoise,218.543899851375,501,7119,2.0,11.0000017000002,,yes,43,3.02612726506532,501,7119,218.5,219.0,230.0,219.0,230.0,219.0,230.0
04,6,21,00to050,00to100,highNoise,230.055066851375,98,9898,0.1,11.0000017000002,,yes,43,0.425742574257426,98,9898,230.0,230.5,241.5,230.5,241.5,230.5,241.5
04,6,22,00to050,00to100,highNoise,241.546410751375,1265,7478,8.0,11.0000013999997,,yes,43,7.27400374431666,1265,7478,241.5,242.0,253.0,242.0,253.0,242.0,253.0
04,6,23,00to050,00to100,highNoise,253.043879651375,3072,9295,14.0,11.0000004000003,,yes,43,14.2115115653577,3072,9295,253.0,253.5,264.5,253.5,264.5,253.5,264.5
04,6,24,00to050,00to100,highNoise,264.546741251375,2718,7340,17.0,11.0000013999997,,yes,43,15.9228882833787,2718,7340,264.5,265.0,276.0,265.0,276.0,265.0,276.0
04,6,25,00to050,00to100,highNoise,276.049535751376,849,7755,,11.0000681000001,,no answer,43,4.70754352030948,849,7755,276.0,276.5,287.5,276.5,287.5,276.5,287.5
05,1,1,00to100,00to100,lowNoise,0.155698947521614,81,100,30.0,11.0000012,,yes,43,34.83,81,100,0.0,0.5,11.5,0.5,11.5,0.5,11.5
05,1,2,00to100,00to100,lowNoise,11.6777826861357,25,100,10.0,11.0000011000002,,yes,43,10.75,25,100,11.5,12.0,23.0,12.0,23.0,12.0,23.0
05,1,3,00to100,00to100,lowNoise,23.0724984861354,33,100,12.0,11.0000007000003,,yes,43,14.19,33,100,23.0,23.5,34.5,23.5,34.5,23.5,34.5
05,1,4,00to100,00to100,lowNoise,34.5490786247492,53,100,20.0,11.0000021000001,,yes,43,22.79,53,100,34.5,35.0,46.0,35.0,46.0,35.0,46.0
05,1,5,00to100,00to100,lowNoise,46.0665937861354,27,100,12.0,11.0000002000002,,yes,43,11.61,27,100,46.0,46.5,57.5,46.5,57.5,46.5,57.5
05,1,6,00to100,00to100,lowNoise,57.5611028475219,15,100,5.0,11.0000017000002,,yes,43,6.45,15,100,57.5,58.0,69.0,58.0,69.0,58.0,69.0
05,1,7,00to100,00to100,lowNoise,69.0602862475216,17,100,5.0,11.0000012,,yes,43,7.31,17,100,69.0,69.5,80.5,69.5,80.5,69.5,80.5
05,1,8,00to100,00to100,lowNoise,80.5539278475217,19,100,6.0,11.0000004000003,,yes,43,8.17,19,100,80.5,81.0,92.0,81.0,92.0,81.0,92.0
05,1,9,00to100,00to100,lowNoise,92.0535061247492,23,100,6.0,11.0000022000004,,yes,43,9.89,23,100,92.0,92.5,103.5,92.5,103.5,92.5,103.5
05,1,10,00to100,00to100,lowNoise,103.543307747522,35,100,10.0,11.0000019000004,,yes,43,15.05,35,100,103.5,104.0,115.0,104.0,115.0,104.0,115.0
05,1,11,00to100,00to100,lowNoise,115.055912608908,71,100,25.0,11.0000001000003,,yes,43,30.53,71,100,115.0,115.5,126.5,115.5,126.5,115.5,126.5
05,1,12,00to100,00to100,lowNoise,126.552368447522,69,100,23.0,11.0000017000002,,yes,43,29.67,69,100,126.5,127.0,138.0,127.0,138.0,127.0,138.0
05,1,13,00to100,00to100,lowNoise,138.055803547522,63,100,22.0,11.0000014000002,,yes,43,27.09,63,100,138.0,138.5,149.5,138.5,149.5,138.5,149.5
05,1,14,00to100,00to100,lowNoise,149.550037447522,55,100,20.0,11.0000002000002,,yes,43,23.65,55,100,149.5,150.0,161.0,150.0,161.0,150.0,161.0
05,1,15,00to100,00to100,lowNoise,161.044536147522,37,100,8.0,11.0000015000001,,yes,43,15.91,37,100,161.0,161.5,172.5,161.5,172.5,161.5,172.5
05,1,16,00to100,00to100,lowNoise,172.551116547522,89,100,35.0,11.0000018000001,,yes,43,38.27,89,100,172.5,173.0,184.0,173.0,184.0,173.0,184.0
05,1,17,00to100,00to100,lowNoise,184.026843893068,39,100,15.0,11.0000017000002,,yes,43,16.77,39,100,184.0,184.5,195.5,184.5,195.5,184.5,195.5
05,1,18,00to100,00to100,lowNoise,195.547450408908,65,100,23.0,11.0000006,,yes,43,27.95,65,100,195.5,196.0,207.0,196.0,207.0,196.0,207.0
05,1,19,00to100,00to100,lowNoise,207.058744786135,45,100,17.0,11.0000012,,yes,43,19.35,45,100,207.0,207.5,218.5,207.5,218.5,207.5,218.5
05,1,20,00to100,00to100,lowNoise,218.548966147522,51,100,16.0,11.0000013000003,,yes,43,21.93,51,100,218.5,219.0,230.0,219.0,230.0,219.0,230.0
05,1,21,00to100,00to100,lowNoise,230.053941147522,3,100,1.0,11.0000011000002,,yes,43,1.29,3,100,230.0,230.5,241.5,230.5,241.5,230.5,241.5
05,1,22,00to100,00to100,lowNoise,241.558904947522,67,100,21.0,11.0000008000002,,yes,43,28.81,67,100,241.5,242.0,253.0,242.0,253.0,242.0,253.0
05,1,23,00to100,00to100,lowNoise,253.043431186135,9,100,1.0,11.0000014000002,,yes,43,3.87,9,100,253.0,253.5,264.5,253.5,264.5,253.5,264.5
05,1,24,00to100,00to100,lowNoise,264.546864547522,91,100,37.0,11.0000003,,yes,43,39.13,91,100,264.5,265.0,276.0,265.0,276.0,265.0,276.0
05,1,25,00to100,00to100,lowNoise,276.044388047522,29,100,9.0,11.0000003,,yes,43,12.47,29,100,276.0,276.5,287.5,276.5,287.5,276.5,287.5
05,1,26,00to100,00to100,lowNoise,287.553070986135,31,100,11.0,11.0000013000003,,yes,43,13.33,31,100,287.5,288.0,299.0,288.0,299.0,288.0,299.0
05,1,27,00to100,00to100,lowNoise,299.054705947522,77,100,28.0,11.0000016000004,,yes,43,33.11,77,100,299.0,299.5,310.5,299.5,310.5,299.5,310.5
05,1,28,00to100,00to100,lowNoise,310.544187847522,13,100,5.0,11.0000009,,yes,43,5.59,13,100,310.5,311.0,322.0,311.0,322.0,311.0,322.0
05,1,29,00to100,00to100,lowNoise,322.052435986136,95,100,39.0,11.0000004000003,,yes,43,40.85,95,100,322.0,322.5,333.5,322.5,333.5,322.5,333.5
05,1,30,00to100,00to100,lowNoise,333.548357047522,87,100,35.0,11.0000004000003,,yes,43,37.41,87,100,333.5,334.0,345.0,334.0,345.0,334.0,345.0
05,1,31,00to100,00to100,lowNoise,345.058633924749,59,100,19.0,11.0000016000004,,yes,43,25.37,59,100,345.0,345.5,356.5,345.5,356.5,345.5,356.5
05,1,32,00to100,00to100,lowNoise,356.551595947522,47,100,17.0,11.0000010000003,,yes,43,20.21,47,100,356.5,357.0,368.0,357.0,368.0,357.0,368.0
05,1,33,00to100,00to100,lowNoise,368.044402886136,99,100,40.0,11.0000016000004,,yes,43,42.57,99,100,368.0,368.5,379.5,368.5,379.5,368.5,379.5
05,1,34,00to100,00to100,lowNoise,379.554846224749,85,100,32.0,11.0000015000001,,yes,43,36.55,85,100,379.5,380.0,391.0,380.0,391.0,380.0,391.0
05,1,35,00to100,00to100,lowNoise,391.043447124749,7,100,2.0,11.0000006,,yes,43,3.01,7,100,391.0,391.5,402.5,391.5,402.5,391.5,402.5
05,1,36,00to100,00to100,lowNoise,402.552137647522,11,100,3.0,11.0000021000001,,yes,43,4.73,11,100,402.5,403.0,414.0,403.0,414.0,403.0,414.0
05,1,37,00to100,00to100,lowNoise,414.060472208908,79,100,28.0,11.0000017000002,,yes,43,33.97,79,100,414.0,414.5,425.5,414.5,425.5,414.5,425.5
05,1,38,00to100,00to100,lowNoise,425.554414447522,49,100,18.0,11.0000010000003,,yes,43,21.07,49,100,425.5,426.0,437.0,426.0,437.0,426.0,437.0
05,1,39,00to100,00to100,lowNoise,437.048510347522,61,100,21.0,11.0000007000003,,yes,43,26.23,61,100,437.0,437.5,448.5,437.5,448.5,437.5,448.5
05,1,40,00to100,00to100,lowNoise,448.552791647522,1,100,1.0,11.0,,yes,43,0.43,1,100,448.5,449.0,460.0,449.0,460.0,449.0,460.0
05,1,41,00to100,00to100,lowNoise,460.060393247522,21,100,7.0,11.0000002000002,,yes,43,9.03,21,100,460.0,460.5,471.5,460.5,471.5,460.5,471.5
05,1,42,00to100,00to100,lowNoise,471.556512324749,97,100,38.0,11.0000020000002,,yes,43,41.71,97,100,471.5,472.0,483.0,472.0,483.0,472.0,483.0
05,1,43,00to100,00to100,lowNoise,483.055945447522,41,100,15.0,11.0000005000002,,yes,43,17.63,41,100,483.0,483.5,494.5,483.5,494.5,483.5,494.5
05,1,44,00to100,00to100,lowNoise,494.551259508909,75,100,27.0,11.0,,yes,43,32.25,75,100,494.5,495.0,506.0,495.0,506.0,495.0,506.0
05,1,45,00to100,00to100,lowNoise,506.045620447522,73,100,26.0,11.0000020000002,,yes,43,31.39,73,100,506.0,506.5,517.5,506.5,517.5,506.5,517.5
05,1,46,00to100,00to100,lowNoise,517.554457786136,5,100,2.0,11.0000006,,yes,43,2.15,5,100,517.5,518.0,529.0,518.0,529.0,518.0,529.0
05,1,47,00to100,00to100,lowNoise,529.043539847522,83,100,30.0,11.0000012,,yes,43,35.69,83,100,529.0,529.5,540.5,529.5,540.5,529.5,540.5
05,1,48,00to100,00to100,lowNoise,540.555897547522,43,100,15.0,11.0000001000003,,yes,43,18.49,43,100,540.5,541.0,552.0,541.0,552.0,541.0,552.0
05,1,49,00to100,00to100,lowNoise,552.044492447522,93,100,33.0,11.0000019000004,,yes,43,39.99,93,100,552.0,552.5,563.5,552.5,563.5,552.5,563.5
05,1,50,00to100,00to100,lowNoise,563.561082447522,57,100,20.0,11.0000019000004,,yes,43,24.51,57,100,563.5,564.0,575.0,564.0,575.0,564.0,575.0
05,2,1,00to100,00to100,highNoise,0.078282486135322,779,5961,5.0,11.0000016000004,,yes,43,5.61935916792484,779,5961,0.0,0.5,11.5,0.5,11.5,0.5,11.5
05,2,2,00to100,00to100,highNoise,11.5560874247494,959,1585,25.0,11.0000006,,yes,43,26.0170347003155,959,1585,11.5,12.0,23.0,12.0,23.0,12.0,23.0
05,2,3,00to100,00to100,highNoise,23.0617169475217,154,3195,1.0,11.0000009,,yes,43,2.07261345852895,154,3195,23.0,23.5,34.5,23.5,34.5,23.5,34.5
05,2,4,00to100,00to100,highNoise,34.5440577861355,2718,7340,12.0,11.0000013000003,,yes,43,15.9228882833787,2718,7340,34.5,35.0,46.0,35.0,46.0,35.0,46.0
05,2,5,00to100,00to100,highNoise,46.0582684861356,488,1380,8.0,11.0000021000001,,yes,43,15.2057971014493,488,1380,46.0,46.5,57.5,46.5,57.5,46.5,57.5
05,2,6,00to100,00to100,highNoise,57.5558714475219,5283,9970,25.0,11.0000003,,yes,43,22.7852557673019,5283,9970,57.5,58.0,69.0,58.0,69.0,58.0,69.0
05,2,7,00to100,00to100,highNoise,69.0480993861356,6281,8371,28.0,11.0000016000004,,yes,43,32.2641261498029,6281,8371,69.0,69.5,80.5,69.5,80.5,69.5,80.5
05,2,8,00to100,00to100,highNoise,80.5589974089085,849,7755,9.0,11.0000013000003,,yes,43,4.70754352030948,849,7755,80.5,81.0,92.0,81.0,92.0,81.0,92.0
05,2,9,00to100,00to100,highNoise,92.0474849475218,3072,9295,12.0,11.0000014000002,,yes,43,14.2115115653577,3072,9295,92.0,92.5,103.5,92.5,103.5,92.5,103.5
05,2,10,00to100,00to100,highNoise,103.556087715841,2099,2403,30.0,11.0000006,,yes,43,37.5601331668747,2099,2403,103.5,104.0,115.0,104.0,115.0,104.0,115.0
05,2,11,00to100,00to100,highNoise,115.050950847522,4807,5647,30.0,11.0000020000002,,yes,43,36.6036833717018,4807,5647,115.0,115.5,126.5,115.5,126.5,115.5,126.5
05,2,12,00to100,00to100,highNoise,126.545434786136,6210,7476,28.0,11.0000001000003,,yes,43,35.7182985553772,6210,7476,126.5,127.0,138.0,127.0,138.0,127.0,138.0
05,2,13,00to100,00to100,highNoise,138.047031124749,2898,7060,11.0,11.0000007000003,,yes,43,17.6507082152974,2898,7060,138.0,138.5,149.5,138.5,149.5,138.5,149.5
05,2,14,00to100,00to100,highNoise,149.560826147522,867,4114,8.0,11.0000013000003,,yes,43,9.06198347107438,867,4114,149.5,150.0,161.0,150.0,161.0,150.0,161.0
05,2,15,00to100,00to100,highNoise,161.054553008908,3836,4851,27.0,11.0000006,,yes,43,34.002886002886,3836,4851,161.0,161.5,172.5,161.5,172.5,161.5,172.5
05,2,16,00to100,00to100,highNoise,172.555363947522,4248,4482,35.0,11.0000006,,yes,43,40.7550200803213,4248,4482,172.5,173.0,184.0,173.0,184.0,173.0,184.0
05,2,17,00to100,00to100,highNoise,184.045988424749,6442,9076,24.0,11.0000014000002,,yes,43,30.5207139709123,6442,9076,184.0,184.5,195.5,184.5,195.5,184.5,195.5
05,2,18,00to100,00to100,highNoise,195.548049947522,4239,6519,24.0,11.0000012,,yes,43,27.9608835710999,4239,6519,195.5,196.0,207.0,196.0,207.0,196.0,207.0
05,2,19,00to100,00to100,highNoise,207.054869708908,501,7119,5.0,11.0,,yes,43,3.02612726506532,501,7119,207.0,207.5,218.5,207.5,218.5,207.5,218.5
05,2,20,00to100,00to100,highNoise,218.548713386136,124,4035,1.0,11.0000012,,yes,43,1.32143742255266,124,4035,218.5,219.0,230.0,219.0,230.0,219.0,230.0
05,2,21,00to100,00to100,highNoise,230.052868247522,4038,5529,22.0,11.0000002000002,,yes,43,31.4042322300597,4038,5529,230.0,230.5,241.5,230.5,241.5,230.5,241.5
05,2,22,00to100,00to100,highNoise,241.557727547522,2173,2817,33.0,11.0000146000002,,yes,43,33.1696840610579,2173,2817,241.5,242.0,253.0,242.0,253.0,242.0,253.0
05,2,23,00to100,00to100,highNoise,253.043819886136,836,5605,7.0,11.0000009,,yes,43,6.4135593220339,836,5605,253.0,253.5,264.5,253.5,264.5,253.5,264.5
05,2,24,00to100,00to100,highNoise,264.556543047522,6455,7249,30.0,11.0,,yes,43,38.290108980549,6455,7249,264.5,265.0,276.0,265.0,276.0,265.0,276.0
05,2,25,00to100,00to100,highNoise,276.054668147522,342,1087,13.0,11.0000011000002,,yes,43,13.5289788408464,342,1087,276.0,276.5,287.5,276.5,287.5,276.5,287.5
05,2,26,00to100,00to100,highNoise,287.552801208908,419,4706,8.0,11.0000017000002,,yes,43,3.82851678708032,419,4706,287.5,288.0,299.0,288.0,299.0,288.0,299.0
05,2,27,00to100,00to100,highNoise,299.060713247522,738,2958,13.0,11.0000021000001,,yes,43,10.7281947261663,738,2958,299.0,299.5,310.5,299.5,310.5,299.5,310.5
05,2,28,00to100,00to100,highNoise,310.557110624749,6015,8980,25.0,11.0000020000002,,yes,43,28.8023385300668,6015,8980,310.5,311.0,322.0,311.0,322.0,311.0,322.0
05,2,29,00to100,00to100,highNoise,322.059663186135,1025,3780,7.0,11.0000012,,yes,43,11.6600529100529,1025,3780,322.0,322.5,333.5,322.5,333.5,322.5,333.5
05,2,30,00to100,00to100,highNoise,333.553475686136,2334,8049,9.0,11.0000018000001,,yes,43,12.4688781215058,2334,8049,333.5,334.0,345.0,334.0,345.0,334.0,345.0
05,2,31,00to100,00to100,highNoise,345.054625286135,7175,7243,38.0,11.0000016000004,,yes,43,42.5962998757421,7175,7243,345.0,345.5,356.5,345.5,356.5,345.5,356.5
05,2,32,00to100,00to100,highNoise,356.553984947522,967,1968,20.0,11.0000011000002,,yes,43,21.1285569105691,967,1968,356.5,357.0,368.0,357.0,368.0,357.0,368.0
05,2,33,00to100,00to100,highNoise,368.046893208908,1175,3016,13.0,11.0000015000001,,yes,43,16.7523209549072,1175,3016,368.0,368.5,379.5,368.5,379.5,368.5,379.5
05,2,34,00to100,00to100,highNoise,379.545798386136,3101,5639,22.0,11.0000008000002,,yes,43,23.6465685405214,3101,5639,379.5,380.0,391.0,380.0,391.0,380.0,391.0
05,2,35,00to100,00to100,highNoise,391.045731786136,2772,4872,21.0,11.0000008000002,,yes,43,24.4655172413793,2772,4872,391.0,391.5,402.5,391.5,402.5,391.5,402.5
05,2,36,00to100,00to100,highNoise,402.542960586135,962,1636,23.0,11.0,,yes,43,25.2848410757946,962,1636,402.5,403.0,414.0,403.0,414.0,403.0,414.0
05,2,37,00to100,00to100,highNoise,414.058055586136,5316,8435,26.0,11.0000018999999,,yes,43,27.0999407231772,5316,8435,414.0,414.5,425.5,414.5,425.5,414.5,425.5
05,2,38,00to100,00to100,highNoise,425.560615186136,4983,9772,19.0,11.0000013000003,,yes,43,21.9268317642243,4983,9772,425.5,426.0,437.0,426.0,437.0,426.0,437.0
05,2,39,00to100,00to100,highNoise,437.044594024749,3944,4241,38.0,11.0000010000003,,yes,43,39.9886819146428,3944,4241,437.0,437.5,448.5,437.5,448.5,437.5,448.5
05,2,40,00to100,00to100,highNoise,448.558697447522,795,4188,6.0,11.0000015000001,,yes,43,8.16260744985673,795,4188,448.5,449.0,460.0,449.0,460.0,449.0,460.0
05,2,41,00to100,00to100,highNoise,460.048403208908,7754,8522,35.0,11.0000004000003,,yes,43,39.1248533208167,7754,8522,460.0,460.5,471.5,460.5,471.5,460.5,471.5
05,2,42,00to100,00to100,highNoise,471.544059686135,2841,6608,20.0,11.0000015000001,,yes,43,18.4871368038741,2841,6608,471.5,472.0,483.0,472.0,483.0,472.0,483.0
05,2,43,00to100,00to100,highNoise,483.053820286135,7379,7608,35.0,11.0000009,,yes,43,41.7057045215563,7379,7608,483.0,483.5,494.5,483.5,494.5,483.5,494.5
05,2,44,00to100,00to100,highNoise,494.557624086136,1165,2596,18.0,11.0000007000003,,yes,43,19.2969953775039,1165,2596,494.5,495.0,506.0,495.0,506.0,495.0,506.0
05,2,45,00to100,00to100,highNoise,506.057397724749,98,9898,6.0,11.0000001000003,,yes,43,0.425742574257426,98,9898,506.0,506.5,517.5,506.5,517.5,506.5,517.5
05,2,46,00to100,00to100,highNoise,517.558411886136,5329,6577,26.0,11.0000018999999,,yes,43,34.840656834423,5329,6577,517.5,518.0,529.0,518.0,529.0,518.0,529.0
05,2,47,00to100,00to100,highNoise,529.043527308908,1265,7478,5.0,11.0000011000002,,yes,43,7.27400374431666,1265,7478,529.0,529.5,540.5,529.5,540.5,529.5,540.5
05,2,48,00to100,00to100,highNoise,540.559488247522,3712,7901,17.0,11.0000016000004,,yes,43,20.2019997468675,3712,7901,540.5,541.0,552.0,541.0,552.0,541.0,552.0
05,2,49,00to100,00to100,highNoise,552.054814186135,1869,2716,25.0,11.0000011000002,,yes,43,29.590206185567,1869,2716,552.0,552.5,563.5,552.5,563.5,552.5,563.5
05,2,50,00to100,00to100,highNoise,563.551868786135,1175,5088,6.0,11.0000003,,yes,43,9.93022798742138,1175,5088,563.5,564.0,575.0,564.0,575.0,564.0,575.0
05,3,1,50to100,00to100,lowNoise,0.0550568475218824,71,100,25.0,11.0000009,,yes,43,30.53,71,100,0.0,0.5,11.5,0.5,11.5,0.5,11.5
05,3,2,50to100,00to100,lowNoise,11.5447691475215,51,100,17.0,11.0000018000001,,yes,43,21.93,51,100,11.5,12.0,23.0,12.0,23.0,12.0,23.0
05,3,3,50to100,00to100,lowNoise,23.0504451475217,69,100,25.0,11.0000020000002,,yes,43,29.67,69,100,23.0,23.5,34.5,23.5,34.5,23.5,34.5
05,3,4,50to100,00to100,lowNoise,34.5455735475216,81,100,32.0,11.0000011000002,,yes,43,34.83,81,100,34.5,35.0,46.0,35.0,46.0,35.0,46.0
05,3,5,50to100,00to100,lowNoise,46.0573303089086,59,100,22.0,11.0000009,,yes,43,25.37,59,100,46.0,46.5,57.5,46.5,57.5,46.5,57.5
05,3,6,50to100,00to100,lowNoise,57.5462059861356,63,100,22.0,11.0000006,,yes,43,27.09,63,100,57.5,58.0,69.0,58.0,69.0,58.0,69.0
05,3,7,50to100,00to100,lowNoise,69.0442823475219,89,100,36.0,11.0000017000002,,yes,43,38.27,89,100,69.0,69.5,80.5,69.5,80.5,69.5,80.5
05,3,8,50to100,00to100,lowNoise,80.543223824749,61,100,22.0,11.0000008000002,,yes,43,26.23,61,100,80.5,81.0,92.0,81.0,92.0,81.0,92.0
05,3,9,50to100,00to100,lowNoise,92.0460058405893,83,100,31.0,11.0000017000002,,yes,43,35.69,83,100,92.0,92.5,103.5,92.5,103.5,92.5,103.5
05,3,10,50to100,00to100,lowNoise,103.548538647522,95,100,38.0,11.0000002000002,,yes,43,40.85,95,100,103.5,104.0,115.0,104.0,115.0,104.0,115.0
05,3,11,50to100,00to100,lowNoise,115.060138747522,93,100,32.0,11.0000014000002,,yes,43,39.99,93,100,115.0,115.5,126.5,115.5,126.5,115.5,126.5
05,3,12,50to100,00to100,lowNoise,126.543305186136,87,100,34.0,11.0000021000001,,yes,43,37.41,87,100,126.5,127.0,138.0,127.0,138.0,127.0,138.0
05,3,13,50to100,00to100,lowNoise,138.043135686135,91,100,38.0,11.0000006,,yes,43,39.13,91,100,138.0,138.5,149.5,138.5,149.5,138.5,149.5
05,3,14,50to100,00to100,lowNoise,149.552247647522,67,100,26.0,11.0000021000001,,yes,43,28.81,67,100,149.5,150.0,161.0,150.0,161.0,150.0,161.0
05,3,15,50to100,00to100,lowNoise,161.043109647522,55,100,20.0,11.0000003,,yes,43,23.65,55,100,161.0,161.5,172.5,161.5,172.5,161.5,172.5
05,3,16,50to100,00to100,lowNoise,172.551850247522,99,100,42.0,11.0000006999999,,yes,43,42.57,99,100,172.5,173.0,184.0,173.0,184.0,173.0,184.0
05,3,17,50to100,00to100,lowNoise,184.049701847522,57,100,17.0,11.0000006,,yes,43,24.51,57,100,184.0,184.5,195.5,184.5,195.5,184.5,195.5
05,3,18,50to100,00to100,lowNoise,195.549843447522,75,100,28.0,11.0000018999999,,yes,43,32.25,75,100,195.5,196.0,207.0,196.0,207.0,196.0,207.0
05,3,19,50to100,00to100,lowNoise,207.055927547522,65,100,21.0,11.0000003999999,,yes,43,27.95,65,100,207.0,207.5,218.5,207.5,218.5,207.5,218.5
05,3,20,50to100,00to100,lowNoise,218.544168624749,73,100,26.0,11.0000017000002,,yes,43,31.39,73,100,218.5,219.0,230.0,219.0,230.0,219.0,230.0
05,3,21,50to100,00to100,lowNoise,230.043533347522,85,100,34.0,11.0000009,,yes,43,36.55,85,100,230.0,230.5,241.5,230.5,241.5,230.5,241.5
05,3,22,50to100,00to100,lowNoise,241.553912608908,53,100,15.0,11.0000011000002,,yes,43,22.79,53,100,241.5,242.0,253.0,242.0,253.0,242.0,253.0
05,3,23,50to100,00to100,lowNoise,253.051460608909,97,100,40.0,11.0000003,,yes,43,41.71,97,100,253.0,253.5,264.5,253.5,264.5,253.5,264.5
05,3,24,50to100,00to100,lowNoise,264.555138508908,77,100,27.0,11.0,,yes,43,33.11,77,100,264.5,265.0,276.0,265.0,276.0,265.0,276.0
05,3,25,50to100,00to100,lowNoise,276.043896486136,79,100,27.0,11.0000012,,yes,43,33.97,79,100,276.0,276.5,287.5,276.5,287.5,276.5,287.5
05,4,1,00to050,00to100,lowNoise,0.0711724861353105,33,100,10.0,11.0000018000001,,yes,43,14.19,33,100,0.0,0.5,11.5,0.5,11.5,0.5,11.5
05,4,2,00to050,00to100,lowNoise,11.5443708861353,11,100,3.0,11.0000007999997,,yes,43,4.73,11,100,11.5,12.0,23.0,12.0,23.0,12.0,23.0
05,4,3,00to050,00to100,lowNoise,23.0564835475216,27,100,11.0,11.0000003999999,,yes,43,11.61,27,100,23.0,23.5,34.5,23.5,34.5,23.5,34.5
05,4,4,00to050,00to100,lowNoise,34.5523703247491,43,100,15.0,11.0000018000001,,yes,43,18.49,43,100,34.5,35.0,46.0,35.0,46.0,35.0,46.0
05,4,5,00to050,00to100,lowNoise,46.0433943475214,15,100,2.0,11.0000013999997,,yes,43,6.45,15,100,46.0,46.5,57.5,46.5,57.5,46.5,57.5
05,4,6,00to050,00to100,lowNoise,57.5434384475216,3,100,0.1,11.0000012999999,,yes,43,1.29,3,100,57.5,58.0,69.0,58.0,69.0,58.0,69.0
05,4,7,00to050,00to100,lowNoise,69.0458215475214,23,100,6.0,11.0000018000001,,yes,43,9.89,23,100,69.0,69.5,80.5,69.5,80.5,69.5,80.5
05,4,8,00to050,00to100,lowNoise,80.5586773316813,45,100,18.0,11.0000018000001,,yes,43,19.35,45,100,80.5,81.0,92.0,81.0,92.0,81.0,92.0
05,4,9,00to050,00to100,lowNoise,92.0442424861353,1,100,0.1,11.0,,yes,43,0.43,1,100,92.0,92.5,103.5,92.5,103.5,92.5,103.5
05,4,10,00to050,00to100,lowNoise,103.548176908908,37,100,12.0,11.0000000999999,,yes,43,15.91,37,100,103.5,104.0,115.0,104.0,115.0,104.0,115.0
05,4,11,00to050,00to100,lowNoise,115.043010047521,5,100,0.5,11.0,,yes,43,2.15,5,100,115.0,115.5,126.5,115.5,126.5,115.5,126.5
05,4,12,00to050,00to100,lowNoise,126.549170247521,13,100,2.0,11.0000006999999,,yes,43,5.59,13,100,126.5,127.0,138.0,127.0,138.0,127.0,138.0
05,4,13,00to050,00to100,lowNoise,138.058969247521,17,100,4.0,11.0000006999999,,yes,43,7.31,17,100,138.0,138.5,149.5,138.5,149.5,138.5,149.5
05,4,14,00to050,00to100,lowNoise,149.546691947522,35,100,12.0,11.0000001999997,,yes,43,15.05,35,100,149.5,150.0,161.0,150.0,161.0,150.0,161.0
05,4,15,00to050,00to100,lowNoise,161.044448477227,41,100,12.0,11.0000015999999,,yes,43,17.63,41,100,161.0,161.5,172.5,161.5,172.5,161.5,172.5
05,4,16,00to050,00to100,lowNoise,172.557339247522,29,100,12.0,11.0000013999997,,yes,43,12.47,29,100,172.5,173.0,184.0,173.0,184.0,173.0,184.0
05,4,17,00to050,00to100,lowNoise,184.058731747522,19,100,8.0,11.0000012,,yes,43,8.17,19,100,184.0,184.5,195.5,184.5,195.5,184.5,195.5
05,4,18,00to050,00to100,lowNoise,195.547969547521,25,100,9.0,11.0,,yes,43,10.75,25,100,195.5,196.0,207.0,196.0,207.0,196.0,207.0
05,4,19,00to050,00to100,lowNoise,207.044373647521,47,100,18.0,11.0000006999999,,yes,43,20.21,47,100,207.0,207.5,218.5,207.5,218.5,207.5,218.5
05,4,20,00to050,00to100,lowNoise,218.556580547522,31,100,11.0,11.0000021999999,,yes,43,13.33,31,100,218.5,219.0,230.0,219.0,230.0,219.0,230.0
05,4,21,00to050,00to100,lowNoise,230.042718747522,7,100,1.0,11.0000000999999,,yes,43,3.01,7,100,230.0,230.5,241.5,230.5,241.5,230.5,241.5
05,4,22,00to050,00to100,lowNoise,241.554850686135,21,100,3.0,11.0000003999999,,yes,43,9.03,21,100,241.5,242.0,253.0,242.0,253.0,242.0,253.0
05,4,23,00to050,00to100,lowNoise,253.055376247522,9,100,3.0,11.0000009,,yes,43,3.87,9,100,253.0,253.5,264.5,253.5,264.5,253.5,264.5
05,4,24,00to050,00to100,lowNoise,264.554485786135,39,100,18.0,11.0000007999997,,yes,43,16.77,39,100,264.5,265.0,276.0,265.0,276.0,265.0,276.0
05,4,25,00to050,00to100,lowNoise,276.052269647521,49,100,17.0,11.0000010999997,,yes,43,21.07,49,100,276.0,276.5,287.5,276.5,287.5,276.5,287.5
05,5,1,50to100,00to100,highNoise,0.0657928475220615,4038,5529,30.0,11.0000012999999,,yes,43,31.4042322300597,4038,5529,0.0,0.5,11.5,0.5,11.5,0.5,11.5
05,5,2,50to100,00to100,highNoise,11.5557384475223,2772,4872,20.0,11.0000017000002,,yes,43,24.4655172413793,2772,4872,11.5,12.0,23.0,12.0,23.0,12.0,23.0
05,5,3,50to100,00to100,highNoise,23.0601364861359,6455,7249,29.0,11.0000017000002,,yes,43,38.290108980549,6455,7249,23.0,23.5,34.5,23.5,34.5,23.5,34.5
05,5,4,50to100,00to100,highNoise,34.5491679861352,959,1585,25.0,11.0000001000008,,yes,43,26.0170347003155,959,1585,34.5,35.0,46.0,35.0,46.0,35.0,46.0
05,5,5,50to100,00to100,highNoise,46.0505277247494,962,1636,25.0,11.0,,yes,43,25.2848410757946,962,1636,46.0,46.5,57.5,46.5,57.5,46.5,57.5
05,5,6,50to100,00to100,highNoise,57.5574271475216,7754,8522,33.0,11.0000002000006,,yes,43,39.1248533208167,7754,8522,57.5,58.0,69.0,58.0,69.0,58.0,69.0
05,5,7,50to100,00to100,highNoise,69.0492040861354,5316,8435,22.0,11.0000011000002,,yes,43,27.0999407231772,5316,8435,69.0,69.5,80.5,69.5,80.5,69.5,80.5
05,5,8,50to100,00to100,highNoise,80.5538726475215,3101,5639,20.0,11.0000018000001,,yes,43,23.6465685405214,3101,5639,80.5,81.0,92.0,81.0,92.0,81.0,92.0
05,5,9,50to100,00to100,highNoise,92.0518994861359,4248,4482,36.0,11.0000018999999,,yes,43,40.7550200803213,4248,4482,92.0,92.5,103.5,92.5,103.5,92.5,103.5
05,5,10,50to100,00to100,highNoise,103.556591147522,7379,7608,37.0,11.0000021000005,,yes,43,41.7057045215563,7379,7608,103.5,104.0,115.0,104.0,115.0,104.0,115.0
05,5,11,50to100,00to100,highNoise,115.043041331682,6281,8371,28.0,11.0000015000005,,yes,43,32.2641261498029,6281,8371,115.0,115.5,126.5,115.5,126.5,115.5,126.5
05,5,12,50to100,00to100,highNoise,126.544662547522,5283,9970,19.0,11.0000012,,yes,43,22.7852557673019,5283,9970,126.5,127.0,138.0,127.0,138.0,127.0,138.0
05,5,13,50to100,00to100,highNoise,138.044744447522,3944,4241,39.0,11.0000018000001,,yes,43,39.9886819146428,3944,4241,138.0,138.5,149.5,138.5,149.5,138.5,149.5
05,5,14,50to100,00to100,highNoise,149.551808647522,5329,6577,26.0,11.0000014000007,,yes,43,34.840656834423,5329,6577,149.5,150.0,161.0,150.0,161.0,150.0,161.0
05,5,15,50to100,00to100,highNoise,161.051373208908,6442,9076,22.0,11.0000008000006,,yes,43,30.5207139709123,6442,9076,161.0,161.5,172.5,161.5,172.5,161.5,172.5
05,5,16,50to100,00to100,highNoise,172.547271947522,2099,2403,28.0,11.0000003000005,,yes,43,37.5601331668747,2099,2403,172.5,173.0,184.0,173.0,184.0,173.0,184.0
05,5,17,50to100,00to100,highNoise,184.053002247522,1869,2716,25.0,11.0000017000002,,yes,43,29.590206185567,1869,2716,184.0,184.5,195.5,184.5,195.5,184.5,195.5
05,5,18,50to100,00to100,highNoise,195.544379547522,3836,4851,36.0,11.0000018999999,,yes,43,34.002886002886,3836,4851,195.5,196.0,207.0,196.0,207.0,196.0,207.0
05,5,19,50to100,00to100,highNoise,207.02798882475,6210,7476,30.0,11.0000009000005,,yes,43,35.7182985553772,6210,7476,207.0,207.5,218.5,207.5,218.5,207.5,218.5
05,5,20,50to100,00to100,highNoise,218.544983347522,6015,8980,26.0,11.0000016000004,,yes,43,28.8023385300668,6015,8980,218.5,219.0,230.0,219.0,230.0,219.0,230.0
05,5,21,50to100,00to100,highNoise,230.050049447522,7175,7243,40.0,11.0000005000002,,yes,43,42.5962998757421,7175,7243,230.0,230.5,241.5,230.5,241.5,230.5,241.5
05,5,22,50to100,00to100,highNoise,241.556283786135,4807,5647,30.0,11.0000015000005,,yes,43,36.6036833717018,4807,5647,241.5,242.0,253.0,242.0,253.0,242.0,253.0
05,5,23,50to100,00to100,highNoise,253.064832286135,2173,2817,26.0,11.0000014000007,,yes,43,33.1696840610579,2173,2817,253.0,253.5,264.5,253.5,264.5,253.5,264.5
05,5,24,50to100,00to100,highNoise,264.544254101976,4239,6519,22.0,11.0000001000008,,yes,43,27.9608835710999,4239,6519,264.5,265.0,276.0,265.0,276.0,265.0,276.0
05,5,25,50to100,00to100,highNoise,276.054660047522,4983,9772,22.0,11.0000014000007,,yes,43,21.9268317642243,4983,9772,276.0,276.5,287.5,276.5,287.5,276.5,287.5
05,6,1,00to050,00to100,highNoise,0.0555589475216038,795,4188,7.0,11.0000007999997,,yes,43,8.16260744985673,795,4188,0.0,0.5,11.5,0.5,11.5,0.5,11.5
05,6,2,00to050,00to100,highNoise,11.5596749247488,1165,2596,14.0,11.0000011000002,,yes,43,19.2969953775039,1165,2596,11.5,12.0,23.0,12.0,23.0,12.0,23.0
05,6,3,00to050,00to100,highNoise,23.0587735475219,2898,7060,14.0,11.0000001999997,,yes,43,17.6507082152974,2898,7060,23.0,23.5,34.5,23.5,34.5,23.5,34.5
05,6,4,00to050,00to100,highNoise,34.5425950861354,849,7755,5.0,11.0000016000004,,yes,43,4.70754352030948,849,7755,34.5,35.0,46.0,35.0,46.0,35.0,46.0
05,6,5,00to050,00to100,highNoise,46.0564213475218,419,4706,3.0,11.0000005000002,,yes,43,3.82851678708032,419,4706,46.0,46.5,57.5,46.5,57.5,46.5,57.5
05,6,6,00to050,00to100,highNoise,57.5424822475215,738,2958,12.0,11.0000004000003,,yes,43,10.7281947261663,738,2958,57.5,58.0,69.0,58.0,69.0,58.0,69.0
05,6,7,00to050,00to100,highNoise,69.0613685475219,154,3195,3.0,11.0000015000005,,yes,43,2.07261345852895,154,3195,69.0,69.5,80.5,69.5,80.5,69.5,80.5
05,6,8,00to050,00to100,highNoise,80.5562099475219,3072,9295,10.0,11.0000018999999,,yes,43,14.2115115653577,3072,9295,80.5,81.0,92.0,81.0,92.0,81.0,92.0
05,6,9,00to050,00to100,highNoise,92.0439359405891,124,4035,3.0,11.0000022000004,,yes,43,1.32143742255266,124,4035,92.0,92.5,103.5,92.5,103.5,92.5,103.5
05,6,10,00to050,00to100,highNoise,103.548033747522,342,1087,3.0,11.0000015000005,,yes,43,13.5289788408464,342,1087,103.5,104.0,115.0,104.0,115.0,104.0,115.0
05,6,11,00to050,00to100,highNoise,115.061348547521,1175,5088,7.0,11.0000006,,yes,43,9.93022798742138,1175,5088,115.0,115.5,126.5,115.5,126.5,115.5,126.5
05,6,12,00to050,00to100,highNoise,126.542642386135,98,9898,4.0,11.0000003000005,,yes,43,0.425742574257426,98,9898,126.5,127.0,138.0,127.0,138.0,127.0,138.0
05,6,13,00to050,00to100,highNoise,138.044494947521,501,7119,5.0,11.0000018999999,,yes,43,3.02612726506532,501,7119,138.0,138.5,149.5,138.5,149.5,138.5,149.5
05,6,14,00to050,00to100,highNoise,149.554058286136,2334,8049,9.0,11.0000004000003,,yes,43,12.4688781215058,2334,8049,149.5,150.0,161.0,150.0,161.0,150.0,161.0
05,6,15,00to050,00to100,highNoise,161.045057347522,867,4114,6.0,11.0000001999997,,yes,43,9.06198347107438,867,4114,161.0,161.5,172.5,161.5,172.5,161.5,172.5
05,6,16,00to050,00to100,highNoise,172.555218647522,1025,3780,12.0,11.0,,yes,43,11.6600529100529,1025,3780,172.5,173.0,184.0,173.0,184.0,173.0,184.0
05,6,17,00to050,00to100,highNoise,184.043796986135,3712,7901,15.0,11.0,,yes,43,20.2019997468675,3712,7901,184.0,184.5,195.5,184.5,195.5,184.5,195.5
05,6,18,00to050,00to100,highNoise,195.543502886136,1175,3016,13.0,11.0000012999999,,yes,43,16.7523209549072,1175,3016,195.5,196.0,207.0,196.0,207.0,196.0,207.0
05,6,19,00to050,00to100,highNoise,207.047937086136,1265,7478,5.0,11.0000010000003,,yes,43,7.27400374431666,1265,7478,207.0,207.5,218.5,207.5,218.5,207.5,218.5
05,6,20,00to050,00to100,highNoise,218.559725447521,488,1380,17.0,11.0,,yes,43,15.2057971014493,488,1380,218.5,219.0,230.0,219.0,230.0,219.0,230.0
05,6,21,00to050,00to100,highNoise,230.043415247522,2718,7340,11.0,11.0000019999998,,yes,43,15.9228882833787,2718,7340,230.0,230.5,241.5,230.5,241.5,230.5,241.5
05,6,22,00to050,00to100,highNoise,241.559174647522,779,5961,7.0,11.0000019999998,,yes,43,5.61935916792484,779,5961,241.5,242.0,253.0,242.0,253.0,242.0,253.0
05,6,23,00to050,00to100,highNoise,253.050774086136,967,1968,18.0,11.0000009000005,,yes,43,21.1285569105691,967,1968,253.0,253.5,264.5,253.5,264.5,253.5,264.5
05,6,24,00to050,00to100,highNoise,264.552710947522,2841,6608,16.0,11.0000016000004,,yes,43,18.4871368038741,2841,6608,264.5,265.0,276.0,265.0,276.0,265.0,276.0
05,6,25,00to050,00to100,highNoise,276.04951194059,836,5605,6.0,11.0000019999998,,yes,43,6.4135593220339,836,5605,276.0,276.5,287.5,276.5,287.5,276.5,287.5
02,1,1,00to100,00to100,lowNoise,0.1258329996665,45,100,20.0,11.0000006,,yes,43,19.35,45,100,0.0,0.5,11.5,0.5,11.5,0.5,11.5
02,1,2,00to100,00to100,lowNoise,11.6758432996664,51,100,21.0,11.0000011,,yes,43,21.93,51,100,11.5,12.0,23.0,12.0,23.0,12.0,23.0
02,1,3,00to100,00to100,lowNoise,23.0619341996664,63,100,23.0,11.0000003,,yes,43,27.09,63,100,23.0,23.5,34.5,23.5,34.5,23.5,34.5
02,1,4,00to100,00to100,lowNoise,34.5588431996664,57,100,21.0,11.0000019000001,,yes,43,24.51,57,100,34.5,35.0,46.0,35.0,46.0,35.0,46.0
02,1,5,00to100,00to100,lowNoise,46.064067539633,41,100,15.0,11.0000007000001,,yes,43,17.63,41,100,46.0,46.5,57.5,46.5,57.5,46.5,57.5
02,1,6,00to100,00to100,lowNoise,57.5543082996664,15,100,6.0,11.0000021000001,,yes,43,6.45,15,100,57.5,58.0,69.0,58.0,69.0,58.0,69.0
02,1,7,00to100,00to100,lowNoise,69.0566978996665,7,100,4.0,11.0000011,,yes,43,3.01,7,100,69.0,69.5,80.5,69.5,80.5,69.5,80.5
02,1,8,00to100,00to100,lowNoise,80.543680659533,91,100,37.0,11.0000016000001,,yes,43,39.13,91,100,80.5,81.0,92.0,81.0,92.0,81.0,92.0
02,1,9,00to100,00to100,lowNoise,92.045648839633,29,100,10.0,11.0000018000001,,yes,43,12.47,29,100,92.0,92.5,103.5,92.5,103.5,92.5,103.5
02,1,10,00to100,00to100,lowNoise,103.556331299666,85,100,37.0,11.000002,,yes,43,36.55,85,100,103.5,104.0,115.0,104.0,115.0,104.0,115.0
02,1,11,00to100,00to100,lowNoise,115.0481453597,33,100,10.0,11.0000011,,yes,43,14.19,33,100,115.0,115.5,126.5,115.5,126.5,115.5,126.5
02,1,12,00to100,00to100,lowNoise,126.544472899667,61,100,18.0,11.0000011,,yes,43,26.23,61,100,126.5,127.0,138.0,127.0,138.0,127.0,138.0
02,1,13,00to100,00to100,lowNoise,138.047343999667,11,100,4.0,11.0000016000001,,yes,43,4.73,11,100,138.0,138.5,149.5,138.5,149.5,138.5,149.5
02,1,14,00to100,00to100,lowNoise,149.543343939633,87,100,38.0,11.0000021000001,,yes,43,37.41,87,100,149.5,150.0,161.0,150.0,161.0,150.0,161.0
02,1,15,00to100,00to100,lowNoise,161.042621699666,3,100,1.0,11.0000011,,yes,43,1.29,3,100,161.0,161.5,172.5,161.5,172.5,161.5,172.5
02,1,16,00to100,00to100,lowNoise,172.550982699667,19,100,3.0,11.0000015000001,,yes,43,8.17,19,100,172.5,173.0,184.0,173.0,184.0,173.0,184.0
02,1,17,00to100,00to100,lowNoise,184.0461215597,31,100,6.0,11.0000018999999,,yes,43,13.33,31,100,184.0,184.5,195.5,184.5,195.5,184.5,195.5
02,1,18,00to100,00to100,lowNoise,195.556058699666,97,100,42.9,11.0000006999999,,yes,43,41.71,97,100,195.5,196.0,207.0,196.0,207.0,196.0,207.0
02,1,19,00to100,00to100,lowNoise,207.057397099667,25,100,7.0,11.0000008000002,,yes,43,10.75,25,100,207.0,207.5,218.5,207.5,218.5,207.5,218.5
02,1,20,00to100,00to100,lowNoise,218.557455599666,59,100,23.0,11.0000012999999,,yes,43,25.37,59,100,218.5,219.0,230.0,219.0,230.0,219.0,230.0
02,1,21,00to100,00to100,lowNoise,230.042848639966,37,100,10.0,11.0000008000002,,yes,43,15.91,37,100,230.0,230.5,241.5,230.5,241.5,230.5,241.5
02,1,22,00to100,00to100,lowNoise,241.546751499666,67,100,25.0,11.0000006999999,,yes,43,28.81,67,100,241.5,242.0,253.0,242.0,253.0,242.0,253.0
02,1,23,00to100,00to100,lowNoise,253.0502099597,9,100,2.0,11.0000017000002,,yes,43,3.87,9,100,253.0,253.5,264.5,253.5,264.5,253.5,264.5
02,1,24,00to100,00to100,lowNoise,264.547990999667,17,100,5.0,11.0000017000002,,yes,43,7.31,17,100,264.5,265.0,276.0,265.0,276.0,265.0,276.0
02,1,25,00to100,00to100,lowNoise,276.0589741597,27,100,13.0,11.0000000999999,,yes,43,11.61,27,100,276.0,276.5,287.5,276.5,287.5,276.5,287.5
02,1,26,00to100,00to100,lowNoise,287.549389599666,47,100,18.0,11.0000017000002,,yes,43,20.21,47,100,287.5,288.0,299.0,288.0,299.0,288.0,299.0
02,1,27,00to100,00to100,lowNoise,299.051592279599,79,100,35.0,11.0000009999999,,yes,43,33.97,79,100,299.0,299.5,310.5,299.5,310.5,299.5,310.5
02,1,28,00to100,00to100,lowNoise,310.547304339633,21,100,4.0,11.0000003999999,,yes,43,9.03,21,100,310.5,311.0,322.0,311.0,322.0,311.0,322.0
02,1,29,00to100,00to100,lowNoise,322.050250739633,95,100,42.9,11.0000021000001,,yes,43,40.85,95,100,322.0,322.5,333.5,322.5,333.5,322.5,333.5
02,1,30,00to100,00to100,lowNoise,333.546431259533,53,100,20.0,11.0000012,,yes,43,22.79,53,100,333.5,334.0,345.0,334.0,345.0,334.0,345.0
02,1,31,00to100,00to100,lowNoise,345.051282199666,81,100,40.0,11.0000018999999,,yes,43,34.83,81,100,345.0,345.5,356.5,345.5,356.5,345.5,356.5
02,1,32,00to100,00to100,lowNoise,356.551070299666,35,100,10.0,11.0000012,,yes,43,15.05,35,100,356.5,357.0,368.0,357.0,368.0,357.0,368.0
02,1,33,00to100,00to100,lowNoise,368.047385399666,23,100,7.0,11.0000021999999,,yes,43,9.89,23,100,368.0,368.5,379.5,368.5,379.5,368.5,379.5
02,1,34,00to100,00to100,lowNoise,379.5514356597,83,100,41.0,11.0000021999999,,yes,43,35.69,83,100,379.5,380.0,391.0,380.0,391.0,380.0,391.0
02,1,35,00to100,00to100,lowNoise,391.059403499667,75,100,39.0,11.0000009999999,,yes,43,32.25,75,100,391.0,391.5,402.5,391.5,402.5,391.5,402.5
02,1,36,00to100,00to100,lowNoise,402.553675199666,93,100,42.9,11.0000009999999,,yes,43,39.99,93,100,402.5,403.0,414.0,403.0,414.0,403.0,414.0
02,1,37,00to100,00to100,lowNoise,414.0580586796,73,100,30.0,11.0000017000002,,yes,43,31.39,73,100,414.0,414.5,425.5,414.5,425.5,414.5,425.5
02,1,38,00to100,00to100,lowNoise,425.545431699667,77,100,33.0,11.0000012999999,,yes,43,33.11,77,100,425.5,426.0,437.0,426.0,437.0,426.0,437.0
02,1,39,00to100,00to100,lowNoise,437.051173099666,43,100,15.0,11.0000018000001,,yes,43,18.49,43,100,437.0,437.5,448.5,437.5,448.5,437.5,448.5
02,1,40,00to100,00to100,lowNoise,448.5453017597,1,100,1.0,11.0000015000001,,yes,43,0.43,1,100,448.5,449.0,460.0,449.0,460.0,449.0,460.0
02,1,41,00to100,00to100,lowNoise,460.058360739633,71,100,29.0,11.0000006,,yes,43,30.53,71,100,460.0,460.5,471.5,460.5,471.5,460.5,471.5
02,1,42,00to100,00to100,lowNoise,471.544289599667,39,100,16.0,11.0000018999999,,yes,43,16.77,39,100,471.5,472.0,483.0,472.0,483.0,472.0,483.0
02,1,43,00to100,00to100,lowNoise,483.0499107597,55,100,25.0,11.0000006,,yes,43,23.65,55,100,483.0,483.5,494.5,483.5,494.5,483.5,494.5
02,1,44,00to100,00to100,lowNoise,494.548318699666,99,100,42.9,11.0000009999999,,yes,43,42.57,99,100,494.5,495.0,506.0,495.0,506.0,495.0,506.0
02,1,45,00to100,00to100,lowNoise,506.042233459533,13,100,4.0,11.0000018000001,,yes,43,5.59,13,100,506.0,506.5,517.5,506.5,517.5,506.5,517.5
02,1,46,00to100,00to100,lowNoise,517.551421839633,89,100,41.0,11.0000020000002,,yes,43,38.27,89,100,517.5,518.0,529.0,518.0,529.0,518.0,529.0
02,1,47,00to100,00to100,lowNoise,529.052169699667,49,100,19.0,11.0000021000001,,yes,43,21.07,49,100,529.0,529.5,540.5,529.5,540.5,529.5,540.5
02,1,48,00to100,00to100,lowNoise,540.552899699666,65,100,26.0,11.0000014000002,,yes,43,27.95,65,100,540.5,541.0,552.0,541.0,552.0,541.0,552.0
02,1,49,00to100,00to100,lowNoise,552.048392299666,5,100,2.0,11.0000003,,yes,43,2.15,5,100,552.0,552.5,563.5,552.5,563.5,552.5,563.5
02,1,50,00to100,00to100,lowNoise,563.559082099666,69,100,29.0,11.0000009,,yes,43,29.67,69,100,563.5,564.0,575.0,564.0,575.0,564.0,575.0
02,2,1,00to100,00to100,highNoise,0.078343459700136,779,5961,5.0,11.0000012,,yes,43,5.61935916792484,779,5961,0.0,0.5,11.5,0.5,11.5,0.5,11.5
02,2,2,00to100,00to100,highNoise,11.5707400996666,1175,3016,14.0,11.0000006,,yes,43,16.7523209549072,1175,3016,11.5,12.0,23.0,12.0,23.0,12.0,23.0
02,2,3,00to100,00to100,highNoise,23.0588776996665,2173,2817,37.0,11.0000005000002,,yes,43,33.1696840610579,2173,2817,23.0,23.5,34.5,23.5,34.5,23.5,34.5
02,2,4,00to100,00to100,highNoise,34.5448598396333,2772,4872,19.0,11.0000010000003,,yes,43,24.4655172413793,2772,4872,34.5,35.0,46.0,35.0,46.0,35.0,46.0
02,2,5,00to100,00to100,highNoise,46.0522055596998,342,1087,15.0,11.0000015000001,,yes,43,13.5289788408464,342,1087,46.0,46.5,57.5,46.5,57.5,46.5,57.5
02,2,6,00to100,00to100,highNoise,57.5503073996665,836,5605,14.0,11.0000006,,yes,43,6.4135593220339,836,5605,57.5,58.0,69.0,58.0,69.0,58.0,69.0
02,2,7,00to100,00to100,highNoise,69.0477868996663,2898,7060,19.0,11.0000005000002,,yes,43,17.6507082152974,2898,7060,69.0,69.5,80.5,69.5,80.5,69.5,80.5
02,2,8,00to100,00to100,highNoise,80.5435601795998,154,3195,1.0,11.0000018000001,,yes,43,2.07261345852895,154,3195,80.5,81.0,92.0,81.0,92.0,81.0,92.0
02,2,9,00to100,00to100,highNoise,92.0574689996665,1265,7478,6.0,11.0000016000004,,yes,43,7.27400374431666,1265,7478,92.0,92.5,103.5,92.5,103.5,92.5,103.5
02,2,10,00to100,00to100,highNoise,103.547716799666,5283,9970,24.0,11.0000014000002,,yes,43,22.7852557673019,5283,9970,103.5,104.0,115.0,104.0,115.0,104.0,115.0
02,2,11,00to100,00to100,highNoise,115.043220719566,2718,7340,17.0,11.0000020000002,,yes,43,15.9228882833787,2718,7340,115.0,115.5,126.5,115.5,126.5,115.5,126.5
02,2,12,00to100,00to100,highNoise,126.555118299666,98,9898,1.0,11.0000017000002,,yes,43,0.425742574257426,98,9898,126.5,127.0,138.0,127.0,138.0,127.0,138.0
02,2,13,00to100,00to100,highNoise,138.0513787597,3101,5639,27.0,11.0000015000001,,yes,43,23.6465685405214,3101,5639,138.0,138.5,149.5,138.5,149.5,138.5,149.5
02,2,14,00to100,00to100,highNoise,149.5438231995,488,1380,16.0,11.0000007000003,,yes,43,15.2057971014493,488,1380,149.5,150.0,161.0,150.0,161.0,150.0,161.0
02,2,15,00to100,00to100,highNoise,161.061404199666,795,4188,11.0,11.0000003,,yes,43,8.16260744985673,795,4188,161.0,161.5,172.5,161.5,172.5,161.5,172.5
02,2,16,00to100,00to100,highNoise,172.5485857597,1025,3780,11.0,11.0000005000002,,yes,43,11.6600529100529,1025,3780,172.5,173.0,184.0,173.0,184.0,173.0,184.0
02,2,17,00to100,00to100,highNoise,184.043793999666,6015,8980,30.0,11.0000019000004,,yes,43,28.8023385300668,6015,8980,184.0,184.5,195.5,184.5,195.5,184.5,195.5
02,2,18,00to100,00to100,highNoise,195.5555232597,6210,7476,34.0,11.0000017000002,,yes,43,35.7182985553772,6210,7476,195.5,196.0,207.0,196.0,207.0,196.0,207.0
02,2,19,00to100,00to100,highNoise,207.0432036597,5329,6577,37.0,11.0000015000001,,yes,43,34.840656834423,5329,6577,207.0,207.5,218.5,207.5,218.5,207.5,218.5
02,2,20,00to100,00to100,highNoise,218.550391799667,4248,4482,42.5,11.0000003,,yes,43,40.7550200803213,4248,4482,218.5,219.0,230.0,219.0,230.0,219.0,230.0
02,2,21,00to100,00to100,highNoise,230.046605399667,849,7755,14.0,11.0000005000002,,yes,43,4.70754352030948,849,7755,230.0,230.5,241.5,230.5,241.5,230.5,241.5
02,2,22,00to100,00to100,highNoise,241.556524999667,4239,6519,31.0,11.0000015000001,,yes,43,27.9608835710999,4239,6519,241.5,242.0,253.0,242.0,253.0,242.0,253.0
02,2,23,00to100,00to100,highNoise,253.050328199667,6455,7249,39.0,11.0000014000002,,yes,43,38.290108980549,6455,7249,253.0,253.5,264.5,253.5,264.5,253.5,264.5
02,2,24,00to100,00to100,highNoise,264.546474999666,124,4035,1.0,11.0000019000004,,yes,43,1.32143742255266,124,4035,264.5,265.0,276.0,265.0,276.0,265.0,276.0
02,2,25,00to100,00to100,highNoise,276.050462099667,5316,8435,19.0,11.0000016000004,,yes,43,27.0999407231772,5316,8435,276.0,276.5,287.5,276.5,287.5,276.5,287.5
02,2,26,00to100,00to100,highNoise,287.546801999667,3944,4241,40.0,11.0000019000004,,yes,43,39.9886819146428,3944,4241,287.5,288.0,299.0,288.0,299.0,288.0,299.0
02,2,27,00to100,00to100,highNoise,299.0502026597,3836,4851,33.0,11.0000007000003,,yes,43,34.002886002886,3836,4851,299.0,299.5,310.5,299.5,310.5,299.5,310.5
02,2,28,00to100,00to100,highNoise,310.542772639633,2334,8049,15.0,11.0000003,,yes,43,12.4688781215058,2334,8049,310.5,311.0,322.0,311.0,322.0,311.0,322.0
02,2,29,00to100,00to100,highNoise,322.027811399666,4807,5647,33.0,11.0000001000003,,yes,43,36.6036833717018,4807,5647,322.0,322.5,333.5,322.5,333.5,322.5,333.5
02,2,30,00to100,00to100,highNoise,333.547613299666,7379,7608,42.8,11.0,,yes,43,41.7057045215563,7379,7608,333.5,334.0,345.0,334.0,345.0,334.0,345.0
02,2,31,00to100,00to100,highNoise,345.0482881597,867,4114,15.0,11.0000007000003,,yes,43,9.06198347107438,867,4114,345.0,345.5,356.5,345.5,356.5,345.5,356.5
02,2,32,00to100,00to100,highNoise,356.558490139633,967,1968,19.0,11.0000014000002,,yes,43,21.1285569105691,967,1968,356.5,357.0,368.0,357.0,368.0,357.0,368.0
