runNumber,trialNumber,probRange,outputRange,trialStartTime,presentedProb_1,presentedProb_2,certaintyEquivalent,responseTime,invalidResponses,answer,riskyValue,lotteryExpectedValue,probabilitySequence_1,probabilitySequence_2,trialTimings,lotteryStartTimings,lotteryEndTimings,scaleStartTimings,scaleEndTimings,responseStartTimings,responseEndTimings,noiseType
4,1,50to100,00to100,0.0254531009995844,062,100,24,9.00000165498932,NaN,yes,43,26.66,062,100,0,1,10,1,10,1,10,lowNoise
4,2,50to100,00to100,10.0298127399874,063,100,24,9.00000108400127,NaN,yes,43,27.09,063,100,10,11,20,11,20,11,20,lowNoise
4,3,50to100,00to100,20.0357691099925,073,100,28,9.00000144398655,NaN,yes,43,31.39,073,100,20,21,30,21,30,21,30,lowNoise
4,4,50to100,00to100,30.0263791629986,072,100,28,9.00000156799797,NaN,yes,43,30.96,072,100,30,31,40,31,40,31,40,lowNoise
4,5,50to100,00to100,40.0311239059956,088,100,32,9.0000004869944,NaN,yes,43,37.84,088,100,40,41,50,41,50,41,50,lowNoise
4,6,50to100,00to100,50.0359630659805,092,100,36,9.00000181799987,NaN,yes,43,39.56,092,100,50,51,60,51,60,51,60,lowNoise
4,7,50to100,00to100,60.0242594879819,052,100,20,9.00000046700006,NaN,yes,43,22.36,052,100,60,61,70,61,70,61,70,lowNoise
4,8,50to100,00to100,70.0313510239939,080,100,32,9.00000055399141,NaN,yes,43,34.4,080,100,70,71,80,71,80,71,80,lowNoise
4,9,50to100,00to100,80.0415776059963,089,100,32,9.00000143598299,NaN,yes,43,38.27,089,100,80,81,90,81,90,81,90,lowNoise
4,10,50to100,00to100,90.0244534649828,051,100,20,9.00000155999442,NaN,yes,43,21.93,051,100,90,91,100,91,100,91,100,lowNoise
4,11,50to100,00to100,100.029789967986,083,100,32,9.0000007560011,NaN,yes,43,35.69,083,100,100,101,110,101,110,101,110,lowNoise
4,12,50to100,00to100,110.035476973979,053,100,20,9.00000199498027,NaN,yes,43,22.79,053,100,110,111,120,111,120,111,120,lowNoise
4,13,50to100,00to100,120.026629131986,100,100,43,9.00000156799797,NaN,yes,43,43,100,100,120,121,130,121,130,121,130,lowNoise
4,14,50to100,00to100,130.029491871974,087,100,32,9.00000175298192,NaN,yes,43,37.41,087,100,130,131,140,131,140,131,140,lowNoise
4,15,50to100,00to100,140.035196824989,076,100,32,9.00000076097785,NaN,yes,43,32.68,076,100,140,141,150,141,150,141,150,lowNoise
4,16,50to100,00to100,150.024165836978,075,100,28,9.00000191299478,NaN,yes,43,32.25,075,100,150,151,160,151,160,151,160,lowNoise
4,17,50to100,00to100,160.030991073989,067,100,25,9.00024767700233,NaN,yes,43,28.81,067,100,160,161,170,161,170,161,170,lowNoise
4,18,50to100,00to100,170.035129899974,057,100,24,9.00000135297887,NaN,yes,43,24.51,057,100,170,171,180,171,180,171,180,lowNoise
4,19,50to100,00to100,180.026168370998,084,100,32,9.0000020749867,NaN,yes,43,36.12,084,100,180,181,190,181,190,181,190,lowNoise
4,20,50to100,00to100,190.029893372994,093,100,36,9.00000210499275,NaN,yes,43,39.99,093,100,190,191,200,191,200,191,200,lowNoise
4,21,50to100,00to100,200.035097241984,059,100,20,9.0000015499827,NaN,yes,43,25.37,059,100,200,201,210,201,210,201,210,lowNoise
4,22,50to100,00to100,210.023923461995,074,100,28,9.00000090899994,NaN,yes,43,31.82,074,100,210,211,220,211,220,211,220,lowNoise
4,23,50to100,00to100,220.029432059993,065,100,24,9.00000261099194,NaN,yes,43,27.95,065,100,220,221,230,221,230,221,230,lowNoise
4,24,50to100,00to100,230.035061016999,068,100,24,9.00000028999057,NaN,yes,43,29.24,068,100,230,231,240,231,240,231,240,lowNoise
4,25,50to100,00to100,240.025577980996,061,100,24,9.00000058399746,NaN,yes,43,26.23,061,100,240,241,250,241,250,241,250,lowNoise
4,26,50to100,00to100,250.029307488992,069,100,28,9.00000005000038,NaN,yes,43,29.67,069,100,250,251,260,251,260,251,260,lowNoise
4,27,50to100,00to100,260.034910572984,094,100,38,9.00000119698234,NaN,yes,43,40.42,094,100,260,261,270,261,270,261,270,lowNoise
4,28,50to100,00to100,270.024299794983,091,100,37,9.0000011639786,NaN,yes,43,39.13,091,100,270,271,280,271,280,271,280,lowNoise
4,29,50to100,00to100,280.030862870975,070,100,28,9.00000078798621,NaN,yes,43,30.1,070,100,280,281,290,281,290,281,290,lowNoise
4,30,50to100,00to100,290.03484047699,099,100,42,9.0000004619942,NaN,yes,43,42.57,099,100,290,291,300,291,300,291,300,lowNoise
4,31,50to100,00to100,300.025857110973,097,100,42,9.00000023198663,NaN,yes,43,41.71,097,100,300,301,310,301,310,301,310,lowNoise
4,32,50to100,00to100,310.031735413999,090,100,36,9.00000054697739,NaN,yes,43,38.7,090,100,310,311,320,311,320,311,320,lowNoise
4,33,50to100,00to100,320.038144220976,081,100,32,9.00000116997398,NaN,yes,43,34.83,081,100,320,321,330,321,330,321,330,lowNoise
4,34,50to100,00to100,330.025703756983,064,100,25,9.00000008600182,NaN,yes,43,27.52,064,100,330,331,340,331,340,331,340,lowNoise
4,35,50to100,00to100,340.029334077,056,100,21,9.00000176698086,NaN,yes,43,24.08,056,100,340,341,350,341,350,341,350,lowNoise
4,36,50to100,00to100,350.034896528989,055,100,25,9.00000137998722,NaN,yes,43,23.65,055,100,350,351,360,351,360,351,360,lowNoise
4,37,50to100,00to100,360.024163464986,054,100,21,9.00000043900218,NaN,yes,43,23.22,054,100,360,361,370,361,370,361,370,lowNoise
4,38,50to100,00to100,370.030452555977,066,100,26,9.00000164599624,NaN,yes,43,28.38,066,100,370,371,380,371,380,371,380,lowNoise
4,39,50to100,00to100,380.036869008996,050,100,20,9.00000050198287,NaN,yes,43,21.5,050,100,380,381,390,381,390,381,390,lowNoise
4,40,50to100,00to100,390.023666072986,086,100,33,9.00000053897384,NaN,yes,43,36.98,086,100,390,391,400,391,400,391,400,lowNoise
4,41,50to100,00to100,400.032979935,077,100,30,9.00000092599657,NaN,yes,43,33.11,077,100,400,401,410,401,410,401,410,lowNoise
4,42,50to100,00to100,410.036074723001,082,100,33,9.00000229899888,NaN,yes,43,35.26,082,100,410,411,420,411,420,411,420,lowNoise
4,43,50to100,00to100,420.044500381977,058,100,22,9.0000010849908,NaN,yes,43,24.94,058,100,420,421,430,421,430,421,430,lowNoise
4,44,50to100,00to100,430.031116886996,095,100,38,9.00000054697739,NaN,yes,43,40.85,095,100,430,431,440,431,440,431,440,lowNoise
4,45,50to100,00to100,440.03850378099,071,100,29,9.00000195199391,NaN,yes,43,30.53,071,100,440,441,450,441,450,441,450,lowNoise
4,46,50to100,00to100,450.056773960998,085,100,35,9.00000179698691,NaN,yes,43,36.55,085,100,450,451,460,451,460,451,460,lowNoise
4,47,50to100,00to100,460.029264327983,078,100,30,9.00000195199391,NaN,yes,43,33.54,078,100,460,461,470,461,470,461,470,lowNoise
4,48,50to100,00to100,470.038843290997,060,100,24,9.00000134998118,NaN,yes,43,25.8,060,100,470,471,480,471,480,471,480,lowNoise
4,49,50to100,00to100,480.026340825978,098,100,41,9.00000001199078,NaN,yes,43,42.14,098,100,480,481,490,481,490,481,490,lowNoise
4,50,50to100,00to100,490.028903058002,079,100,32,9.00000195097527,NaN,yes,43,33.97,079,100,490,491,500,491,500,491,500,lowNoise
4,51,50to100,00to100,500.034914160991,096,100,40,9.00000062398612,NaN,yes,43,41.28,096,100,500,501,510,501,510,501,510,lowNoise
